t,ax,ay,az,gx,gy,gz,wx,wy,wz
0.014122,0.7007,0.0596,0.7031,-0.06,0.00,-0.06,3.33,-44.01,-131.33
0.014122,0.7002,0.0581,0.7036,-0.06,0.00,-0.06,3.33,-44.01,-131.33
0.044563,0.7007,0.0586,0.7026,-0.06,0.00,-0.12,3.33,-44.01,-131.33
0.044563,0.7007,0.0591,0.7036,0.00,0.00,-0.06,3.33,-44.01,-131.33
0.104123,0.7017,0.0586,0.7041,0.00,0.00,-0.12,3.33,-44.01,-131.33
0.104123,0.7002,0.0586,0.7041,-0.06,0.00,-0.12,3.33,-44.01,-131.33
0.164251,0.7012,0.0586,0.7046,0.00,0.00,-0.12,3.33,-44.01,-131.33
0.164251,0.7007,0.0586,0.7036,-0.06,0.00,-0.12,3.33,-44.01,-131.33
0.165625,0.7012,0.0591,0.7041,-0.06,0.00,-0.12,3.33,-44.01,-131.33
0.165625,0.7007,0.0586,0.7046,0.00,0.00,-0.12,3.33,-44.01,-131.33
0.224135,0.7002,0.0586,0.7046,-0.06,0.06,-0.12,3.33,-44.01,-131.33
0.224135,0.7002,0.0586,0.7036,0.00,0.00,-0.12,3.33,-44.01,-131.33
0.254599,0.7002,0.0586,0.7046,0.00,0.00,-0.12,3.33,-44.01,-131.33
0.254599,0.7007,0.0591,0.7041,-0.06,0.00,-0.12,3.33,-44.01,-131.33
0.284149,0.7007,0.0581,0.7036,-0.06,0.00,-0.12,3.33,-44.01,-131.33
0.284149,0.7012,0.0591,0.7041,-0.06,0.00,-0.12,3.33,-44.01,-131.33
0.344408,0.7017,0.0581,0.7036,-0.06,0.00,-0.06,3.33,-44.01,-131.33
0.344408,0.7002,0.0591,0.7041,0.00,0.00,-0.12,3.33,-44.01,-131.33
0.374385,0.7002,0.0586,0.7036,-0.06,0.00,-0.12,3.33,-44.01,-131.33
0.374385,0.7007,0.0591,0.7026,-0.06,0.00,-0.12,3.33,-44.01,-131.33
0.404442,0.7002,0.0591,0.7031,-0.06,0.00,-0.12,3.33,-44.01,-131.33
0.404442,0.7002,0.0586,0.7036,-0.06,0.00,-0.06,3.33,-44.01,-131.33
0.464331,0.6997,0.0596,0.7036,0.00,0.00,-0.12,3.33,-44.01,-131.33
0.464331,0.7007,0.0586,0.7046,-0.06,0.00,-0.12,3.33,-44.01,-131.33
0.500682,0.7007,0.0586,0.7041,0.00,0.00,-0.06,3.33,-44.01,-131.33
0.500682,0.7012,0.0591,0.7041,-0.06,0.00,-0.12,3.33,-44.01,-131.33
0.524222,0.7017,0.0591,0.7046,-0.06,0.00,-0.18,3.33,-44.01,-131.33
0.524222,0.7007,0.0591,0.7041,-0.06,0.00,-0.06,3.33,-44.01,-131.33
0.584129,0.7007,0.0591,0.7036,-0.06,0.00,-0.12,3.33,-44.01,-131.33
0.584129,0.7012,0.0591,0.7031,0.00,0.00,-0.18,3.33,-44.01,-131.33
0.614192,0.7002,0.0586,0.7031,-0.06,0.00,-0.12,3.33,-44.01,-131.33
0.614192,0.6997,0.0586,0.7036,-0.06,0.00,-0.06,3.33,-44.01,-131.33
0.674757,0.7007,0.0581,0.7031,-0.06,0.00,-0.12,3.33,-44.01,-131.33
0.674757,0.7007,0.0591,0.7041,-0.06,0.00,-0.12,3.33,-44.01,-131.33
0.704344,0.7012,0.0586,0.7036,-0.06,0.00,-0.18,3.33,-44.01,-131.33
0.704344,0.7007,0.0586,0.7036,-0.06,0.00,-0.18,3.33,-44.01,-131.33
0.734309,0.7007,0.0586,0.7031,-0.06,0.00,-0.06,3.33,-44.01,-131.33
0.734309,0.7002,0.0591,0.7041,-0.06,0.00,-0.06,3.33,-44.01,-131.33
0.794498,0.7007,0.0581,0.7036,-0.06,0.00,-0.12,3.33,-44.01,-131.33
0.794498,0.7007,0.0581,0.7036,-0.06,0.00,-0.12,3.33,-44.01,-131.33
0.824295,0.7012,0.0591,0.7036,0.00,0.06,-0.12,3.33,-44.01,-131.33
0.824295,0.7012,0.0586,0.7036,-0.06,0.00,-0.12,3.33,-44.01,-131.33
0.870777,0.7002,0.0586,0.7041,-0.06,0.00,-0.12,3.33,-44.01,-131.33
0.870777,0.7007,0.0586,0.7041,-0.06,0.00,-0.12,3.33,-44.01,-131.33
0.914154,0.7002,0.0591,0.7031,0.00,0.00,-0.12,3.33,-44.01,-131.33
0.914154,0.7012,0.0581,0.7046,0.00,0.00,-0.12,3.33,-44.01,-131.33
0.944323,0.7002,0.0581,0.7036,-0.06,0.00,-0.06,3.33,-44.01,-131.33
0.944323,0.7017,0.0596,0.7036,-0.06,0.00,-0.12,3.33,-44.01,-131.33
0.974670,0.7007,0.0586,0.7031,-0.06,0.00,-0.12,3.33,-44.01,-131.33
0.974670,0.7007,0.0596,0.7041,0.00,0.00,-0.06,3.33,-44.01,-131.33
1.034434,0.7002,0.0581,0.7031,-0.06,0.00,-0.12,3.33,-44.01,-131.33
1.034434,0.7012,0.0586,0.7026,-0.06,0.00,-0.12,3.33,-44.01,-131.33
1.064397,0.7002,0.0591,0.7031,0.00,0.00,-0.12,3.33,-44.01,-131.33
1.064397,0.7002,0.0591,0.7026,-0.06,0.00,-0.12,3.33,-44.01,-131.33
1.094496,0.7002,0.0581,0.7031,-0.06,0.00,-0.06,3.33,-44.01,-131.33
1.094496,0.7007,0.0596,0.7031,-0.06,0.00,-0.06,3.33,-44.01,-131.33
1.154240,0.7002,0.0586,0.7046,-0.06,0.00,-0.18,3.33,-44.01,-131.33
1.154240,0.7007,0.0591,0.7031,-0.06,0.00,-0.12,3.33,-44.01,-131.33
1.184523,0.7007,0.0576,0.7031,-0.06,0.00,-0.12,3.33,-44.01,-131.33
1.184523,0.7002,0.0586,0.7036,-0.06,0.00,-0.06,3.33,-44.01,-131.33
1.214258,0.7007,0.0591,0.7041,-0.06,0.00,-0.12,3.33,-44.01,-131.33
1.214258,0.7007,0.0581,0.7031,-0.06,0.00,-0.12,3.33,-44.01,-131.33
1.274420,0.7012,0.0586,0.7026,-0.06,0.00,-0.06,3.33,-44.01,-131.33
1.274420,0.7002,0.0586,0.7041,-0.06,0.06,-0.12,3.33,-44.01,-131.33
1.304506,0.7007,0.0581,0.7036,0.00,0.00,-0.12,3.33,-44.01,-131.33
1.304506,0.7012,0.0586,0.7026,-0.06,0.00,-0.18,3.33,-44.01,-131.33
1.334546,0.7002,0.0591,0.7026,-0.06,0.00,-0.12,3.33,-44.01,-131.33
1.334546,0.7012,0.0586,0.7036,-0.06,0.00,-0.06,3.33,-44.01,-131.33
1.395897,0.7007,0.0591,0.7031,-0.06,0.00,-0.06,3.33,-44.01,-131.33
1.395897,0.7007,0.0586,0.7041,0.00,0.00,-0.12,3.33,-44.01,-131.33
1.424496,0.7012,0.0586,0.7026,-0.06,0.00,-0.12,3.33,-44.01,-131.33
1.424496,0.7007,0.0586,0.7031,0.00,0.00,-0.06,3.33,-44.01,-131.33
1.454868,0.7007,0.0591,0.7031,-0.06,0.00,-0.12,3.33,-44.01,-131.33
1.454868,0.7007,0.0591,0.7036,0.00,0.00,-0.12,3.33,-44.01,-131.33
1.514450,0.7012,0.0586,0.7041,0.00,0.00,-0.06,3.33,-44.01,-131.33
1.514450,0.7002,0.0586,0.7041,-0.06,0.00,-0.06,3.33,-44.01,-131.33
1.550570,0.7007,0.0591,0.7036,-0.06,0.00,-0.06,3.33,-44.01,-131.33
1.550570,0.7002,0.0586,0.7036,-0.06,0.00,-0.12,3.33,-44.01,-131.33
1.574677,0.7002,0.0591,0.7031,-0.06,0.00,-0.12,3.33,-44.01,-131.33
1.574677,0.6997,0.0586,0.7046,-0.06,0.00,-0.18,3.33,-44.01,-131.33
1.634394,0.7002,0.0576,0.7051,0.00,0.00,-0.12,3.33,-44.01,-131.33
1.634394,0.7007,0.0586,0.7036,-0.06,0.06,-0.12,3.33,-44.01,-131.33
1.665307,0.7012,0.0586,0.7026,-0.06,0.00,-0.12,3.33,-44.01,-131.33
1.665307,0.6997,0.0591,0.7031,-0.06,-0.06,-0.12,3.33,-44.01,-131.33
1.694158,0.7007,0.0586,0.7026,0.00,0.00,-0.12,3.33,-44.01,-131.33
1.694158,0.7007,0.0581,0.7021,-0.06,0.00,-0.12,3.33,-44.01,-131.33
1.766001,0.6997,0.0581,0.7031,0.00,0.00,0.00,3.33,-44.01,-131.33
1.766001,0.7012,0.0586,0.7026,-0.06,0.00,-0.06,3.33,-44.01,-131.33
1.791043,0.7002,0.0581,0.7036,0.00,0.00,-0.06,3.33,-44.01,-131.33
1.791043,0.6992,0.0586,0.7036,0.00,0.00,-0.06,3.33,-44.01,-131.33
1.814245,0.7007,0.0586,0.7031,0.00,0.00,-0.12,3.33,-44.01,-131.33
1.814245,0.7012,0.0591,0.7031,-0.06,0.00,-0.12,3.33,-44.01,-131.33
1.874786,0.7007,0.0596,0.7041,-0.06,0.00,-0.12,3.33,-44.01,-131.33
1.874786,0.7002,0.0586,0.7026,-0.06,0.00,-0.12,3.33,-44.01,-131.33
1.905595,0.7012,0.0586,0.7026,-0.06,0.00,-0.06,3.33,-44.01,-131.33
1.905595,0.7007,0.0586,0.7021,-0.06,0.00,-0.12,3.33,-44.01,-131.33
1.935935,0.7002,0.0581,0.7031,-0.06,0.00,-0.18,3.33,-44.01,-131.33
1.935935,0.7007,0.0591,0.7031,-0.06,0.00,-0.12,3.33,-44.01,-131.33
1.995952,0.7002,0.0581,0.7031,-0.06,0.00,-0.06,3.33,-44.01,-131.33
1.995952,0.7012,0.0596,0.7026,-0.06,0.00,-0.12,3.33,-44.01,-131.33
2.024202,0.7002,0.0591,0.7031,0.00,0.00,-0.12,3.33,-44.01,-131.33
2.024202,0.7002,0.0591,0.7041,-0.06,0.00,-0.12,3.33,-44.01,-131.33
2.085650,0.7007,0.0591,0.7026,-0.06,0.00,-0.12,3.33,-44.01,-131.33
2.085650,0.7007,0.0586,0.7036,-0.06,0.00,-0.12,3.33,-44.01,-131.33
2.114831,0.7007,0.0586,0.7036,0.00,0.00,-0.12,3.33,-44.01,-131.33
2.114831,0.7017,0.0586,0.7026,-0.06,0.00,-0.12,3.33,-44.01,-131.33
2.144447,0.7012,0.0586,0.7021,-0.06,0.00,-0.06,3.33,-44.01,-131.33
2.144447,0.7002,0.0581,0.7036,-0.06,0.00,-0.18,3.33,-44.01,-131.33
2.204592,0.7007,0.0591,0.7031,-0.06,0.00,-0.06,3.33,-44.01,-131.33
2.204592,0.7007,0.0586,0.7026,-0.06,0.00,-0.06,3.33,-44.01,-131.33
2.235538,0.7007,0.0581,0.7031,-0.06,0.00,-0.18,3.33,-44.01,-131.33
2.235538,0.7017,0.0576,0.7031,-0.06,0.00,-0.12,3.33,-44.01,-131.33
2.264611,0.7012,0.0586,0.7036,0.00,0.06,-0.12,3.33,-44.01,-131.33
2.264611,0.7002,0.0596,0.7031,-0.06,0.00,-0.12,3.33,-44.01,-131.33
2.324510,0.7007,0.0591,0.7031,-0.06,0.00,-0.06,3.33,-44.01,-131.33
2.324510,0.7012,0.0591,0.7036,0.00,0.00,-0.12,3.33,-44.01,-131.33
2.354681,0.7002,0.0586,0.7031,-0.06,0.00,-0.06,3.33,-44.01,-131.33
2.354681,0.7007,0.0581,0.7036,-0.06,0.00,-0.12,3.33,-44.01,-131.33
2.385796,0.7007,0.0586,0.7036,-0.06,0.00,-0.06,3.33,-44.01,-131.33
2.385796,0.6997,0.0581,0.7041,-0.06,0.00,-0.18,3.33,-44.01,-131.33
2.444180,0.7007,0.0586,0.7031,-0.06,0.00,-0.18,3.33,-44.01,-131.33
2.444180,0.7002,0.0591,0.7031,-0.06,0.00,-0.06,3.33,-44.01,-131.33
2.474811,0.7007,0.0581,0.7041,-0.06,0.00,-0.24,3.33,-44.01,-131.33
2.474811,0.7007,0.0591,0.7036,-0.06,0.00,-0.12,3.33,-44.01,-131.33
2.504772,0.7007,0.0591,0.7036,-0.06,0.00,-0.12,3.33,-44.01,-131.33
2.504772,0.7017,0.0581,0.7031,-0.06,0.00,-0.12,3.33,-44.01,-131.33
2.564229,0.7012,0.0586,0.7041,0.00,0.00,-0.12,3.33,-44.01,-131.33
2.564229,0.7002,0.0591,0.7036,0.00,0.00,-0.12,3.33,-44.01,-131.33
2.594498,0.7007,0.0586,0.7046,-0.06,-0.06,-0.12,3.33,-44.01,-131.33
2.594498,0.7002,0.0591,0.7041,-0.06,0.00,-0.12,3.33,-44.01,-131.33
2.624398,0.7017,0.0581,0.7031,-0.06,0.00,-0.18,3.33,-44.01,-131.33
2.624398,0.7007,0.0596,0.7031,0.00,0.00,-0.18,3.33,-44.01,-131.33
2.685392,0.6997,0.0591,0.7031,-0.06,0.00,-0.12,3.33,-44.01,-131.33
2.685392,0.7002,0.0591,0.7036,-0.06,0.00,-0.18,3.33,-44.01,-131.33
2.714747,0.7002,0.0596,0.7041,-0.06,0.00,-0.12,3.33,-44.01,-131.33
2.714747,0.7012,0.0591,0.7041,-0.06,0.00,-0.06,3.33,-44.01,-131.33
2.744516,0.7012,0.0586,0.7031,-0.06,0.00,-0.12,3.33,-44.01,-131.33
2.744516,0.7007,0.0586,0.7031,-0.06,0.00,-0.18,3.33,-44.01,-131.33
2.804502,0.7007,0.0586,0.7031,-0.06,0.00,-0.06,3.33,-44.01,-131.33
2.804502,0.7012,0.0581,0.7036,-0.06,0.00,-0.12,3.33,-44.01,-131.33
2.834493,0.7002,0.0586,0.7031,-0.06,0.00,-0.12,3.33,-44.01,-131.33
2.834493,0.7007,0.0591,0.7031,-0.06,0.00,-0.12,3.33,-44.01,-131.33
2.864319,0.7017,0.0586,0.7041,-0.06,0.00,-0.12,3.33,-44.01,-131.33
2.864319,0.7002,0.0581,0.7041,-0.06,0.00,-0.12,3.33,-44.01,-131.33
2.924309,0.7007,0.0591,0.7036,-0.06,0.00,-0.12,3.33,-44.01,-131.33
2.924309,0.7002,0.0586,0.7036,0.00,0.00,-0.06,3.33,-44.01,-131.33
2.954452,0.7002,0.0586,0.7031,0.00,0.00,-0.12,3.33,-44.01,-131.33
2.954452,0.7002,0.0591,0.7036,-0.06,0.00,-0.06,3.33,-44.01,-131.33
2.987359,0.7017,0.0581,0.7031,-0.06,0.00,-0.12,3.33,-44.01,-131.33
2.987359,0.7012,0.0596,0.7021,-0.06,0.00,-0.12,3.33,-44.01,-131.33
3.044950,0.7007,0.0586,0.7031,-0.06,0.00,-0.06,3.33,-44.01,-131.33
3.044950,0.7012,0.0596,0.7026,-0.06,0.00,-0.12,3.33,-44.01,-131.33
3.074431,0.7002,0.0591,0.7031,-0.06,0.00,-0.06,3.33,-44.01,-131.33
3.074431,0.7007,0.0591,0.7036,-0.06,0.00,-0.06,3.33,-44.01,-131.33
3.107628,0.7012,0.0576,0.7031,0.00,0.00,-0.06,3.33,-44.01,-131.33
3.107628,0.7012,0.0581,0.7036,-0.06,0.00,-0.12,3.33,-44.01,-131.33
3.165167,0.7017,0.0586,0.7026,-0.06,0.00,-0.12,3.33,-44.01,-131.33
3.165167,0.7012,0.0596,0.7031,0.00,0.00,-0.06,3.33,-44.01,-131.33
3.203844,0.7007,0.0591,0.7031,-0.12,0.00,-0.12,3.33,-44.01,-131.33
3.203844,0.7007,0.0596,0.7041,0.00,0.00,-0.12,3.33,-44.01,-131.33
3.225751,0.7007,0.0581,0.7026,-0.06,0.00,-0.12,3.33,-44.01,-131.33
3.225751,0.7007,0.0586,0.7036,-0.06,0.00,-0.12,3.33,-44.01,-131.33
3.284970,0.7007,0.0586,0.7041,-0.06,0.00,-0.12,3.33,-44.01,-131.33
3.284970,0.7002,0.0591,0.7041,-0.06,0.00,-0.12,3.33,-44.01,-131.33
3.314090,0.7002,0.0586,0.7036,0.00,0.00,-0.12,3.33,-44.01,-131.33
3.314090,0.7002,0.0586,0.7026,-0.06,0.00,-0.06,3.33,-44.01,-131.33
3.374257,0.7007,0.0591,0.7036,-0.06,0.00,-0.12,3.33,-44.01,-131.33
3.374257,0.6997,0.0586,0.7026,0.00,0.00,-0.18,3.33,-44.01,-131.33
3.404125,0.7012,0.0586,0.7026,-0.06,0.00,-0.12,3.33,-44.01,-131.33
3.404125,0.7012,0.0586,0.7036,-0.06,0.00,-0.12,3.33,-44.01,-131.33
3.436090,0.7007,0.0591,0.7036,-0.06,0.00,-0.18,3.33,-44.01,-131.33
3.436090,0.7012,0.0586,0.7036,-0.06,0.00,-0.12,3.33,-44.01,-131.33
3.494302,0.7007,0.0596,0.7021,0.00,0.00,-0.12,3.33,-44.01,-131.33
3.494302,0.6997,0.0586,0.7036,0.00,0.00,-0.06,3.33,-44.01,-131.33
3.524578,0.6997,0.0581,0.7031,-0.06,0.00,-0.12,3.33,-44.01,-131.33
3.524578,0.7002,0.0586,0.7036,0.00,0.00,-0.12,3.33,-44.01,-131.33
3.554243,0.6997,0.0591,0.7031,0.00,0.00,-0.12,3.33,-44.01,-131.33
3.554243,0.7017,0.0581,0.7026,0.00,0.00,-0.12,3.33,-44.01,-131.33
3.614695,0.7007,0.0591,0.7031,-0.06,0.00,-0.18,3.33,-44.01,-131.33
3.614695,0.7002,0.0586,0.7036,-0.06,0.00,-0.12,3.33,-44.01,-131.33
3.644722,0.7007,0.0581,0.7041,-0.06,0.00,-0.06,3.33,-44.01,-131.33
3.644722,0.6997,0.0591,0.7026,-0.06,0.00,-0.12,3.33,-44.01,-131.33
3.674550,0.7002,0.0586,0.7036,-0.06,0.00,-0.06,3.33,-44.01,-131.33
3.674550,0.6997,0.0591,0.7031,0.00,0.00,-0.12,3.33,-44.01,-131.33
3.949301,0.7007,0.0591,0.7031,-0.06,0.00,-0.06,3.33,-44.01,-131.33
3.949301,0.7007,0.0591,0.7031,0.00,0.06,-0.06,3.33,-44.01,-131.33
3.949342,0.7002,0.0591,0.7036,-0.06,0.00,-0.06,3.33,-44.01,-131.33
3.949342,0.7002,0.0586,0.7031,-0.06,0.00,-0.12,3.33,-44.01,-131.33
3.949353,0.7007,0.0596,0.7031,-0.06,0.00,-0.12,3.33,-44.01,-131.33
3.949353,0.7002,0.0596,0.7026,0.00,0.00,-0.12,3.33,-44.01,-131.33
