t,ax,ay,az,gx,gy,gz,wx,wy,wz
0.073165,-0.0112,-0.0190,1.0054,0.06,0.00,-0.06,-2.59,1.33,40.19
0.073165,-0.0093,-0.0190,1.0044,0.00,0.00,-0.12,-2.59,1.33,40.19
0.078384,-0.0093,-0.0190,1.0054,0.12,0.00,-0.06,-2.59,1.33,40.19
0.078384,-0.0103,-0.0186,1.0049,-0.12,0.00,-0.06,-2.59,1.33,40.19
0.107812,-0.0083,-0.0195,1.0034,0.00,-0.06,0.00,-2.59,1.33,40.19
0.107812,-0.0093,-0.0200,1.0039,0.00,0.00,-0.06,-2.59,1.33,40.19
0.137597,-0.0098,-0.0200,1.0049,0.00,0.00,-0.06,-2.59,1.33,40.19
0.137597,-0.0093,-0.0190,1.0044,0.00,0.00,-0.06,-2.59,1.33,40.19
0.197750,-0.0088,-0.0195,1.0039,-0.12,0.00,-0.06,-2.58,1.33,40.19
0.197750,-0.0098,-0.0195,1.0044,0.00,0.00,0.00,-2.58,1.33,40.19
0.228625,-0.0088,-0.0195,1.0049,0.00,0.00,-0.06,-2.58,1.33,40.19
0.228625,-0.0093,-0.0200,1.0039,0.12,0.00,0.00,-2.58,1.33,40.19
0.257714,-0.0093,-0.0190,1.0034,0.00,0.06,-0.06,-2.58,1.33,40.19
0.257714,-0.0093,-0.0195,1.0039,0.00,0.00,-0.12,-2.58,1.33,40.19
0.317790,-0.0098,-0.0195,1.0039,0.00,0.06,0.00,-2.58,1.33,40.19
0.317790,-0.0093,-0.0190,1.0039,0.06,0.06,-0.06,-2.58,1.33,40.19
0.348104,-0.0103,-0.0181,1.0039,0.06,0.06,-0.06,-2.58,1.33,40.19
0.348104,-0.0098,-0.0186,1.0039,0.00,0.06,-0.06,-2.58,1.33,40.19
0.380708,-0.0098,-0.0205,1.0029,0.00,0.00,-0.06,-2.58,1.33,40.19
0.380708,-0.0112,-0.0195,1.0034,0.00,0.00,-0.06,-2.58,1.33,40.19
0.438019,-0.0112,-0.0190,1.0039,0.00,0.00,-0.06,-2.58,1.33,40.19
0.438019,-0.0107,-0.0195,1.0039,-0.06,0.00,-0.06,-2.58,1.33,40.19
0.468192,-0.0107,-0.0190,1.0049,-0.06,0.00,0.00,-2.58,1.33,40.19
0.468192,-0.0103,-0.0195,1.0034,-0.06,0.00,-0.06,-2.58,1.33,40.19
0.497819,-0.0103,-0.0200,1.0029,0.00,-0.06,0.00,-2.58,1.33,40.19
0.497819,-0.0098,-0.0190,1.0039,0.00,0.00,0.00,-2.58,1.33,40.19
0.557836,-0.0093,-0.0186,1.0039,0.00,-0.06,-0.06,-2.58,1.33,40.19
0.557836,-0.0103,-0.0190,1.0044,-0.12,-0.18,0.00,-2.58,1.33,40.19
0.587990,-0.0088,-0.0186,1.0044,-0.24,-0.18,0.00,-2.58,1.33,40.19
0.587990,-0.0093,-0.0195,1.0049,-0.24,-0.24,0.06,-2.58,1.33,40.19
0.617880,-0.0088,-0.0205,1.0039,-0.55,-0.24,0.00,-2.58,1.33,40.19
0.617880,-0.0083,-0.0205,1.0029,-0.37,-0.12,0.00,-2.58,1.33,40.19
0.677785,-0.0093,-0.0200,1.0034,-0.24,0.00,0.00,-2.58,1.33,40.19
0.677785,-0.0083,-0.0190,1.0039,0.00,-0.06,0.00,-2.58,1.33,40.19
0.707885,-0.0083,-0.0190,1.0039,0.00,-0.12,0.00,-2.58,1.33,40.19
0.707885,-0.0088,-0.0200,1.0034,-0.06,0.00,-0.06,-2.58,1.33,40.19
0.737607,-0.0088,-0.0205,1.0034,0.00,-0.06,-0.06,-2.58,1.33,40.19
0.737607,-0.0093,-0.0210,1.0029,0.00,0.00,0.00,-2.58,1.33,40.19
0.797703,-0.0088,-0.0190,1.0044,0.12,0.00,0.00,-2.58,1.33,40.19
0.797703,-0.0093,-0.0186,1.0044,-0.31,0.00,-0.06,-2.58,1.33,40.19
0.827835,-0.0088,-0.0200,1.0039,-0.31,-0.06,-0.06,-2.58,1.33,40.19
0.827835,-0.0088,-0.0215,1.0039,-0.18,0.00,-0.06,-2.58,1.33,40.19
0.857645,-0.0098,-0.0205,1.0039,0.06,0.00,-0.06,-2.58,1.33,40.19
0.857645,-0.0093,-0.0200,1.0044,0.12,0.06,-0.06,-2.59,1.33,40.19
0.917621,-0.0098,-0.0205,1.0039,0.06,0.00,-0.06,-2.59,1.33,40.19
0.917621,-0.0103,-0.0205,1.0039,0.06,0.00,-0.12,-2.59,1.33,40.19
0.947878,-0.0098,-0.0200,1.0034,0.12,0.06,0.00,-2.59,1.33,40.19
0.947878,-0.0103,-0.0200,1.0039,0.12,0.00,0.00,-2.59,1.33,40.19
0.977672,-0.0103,-0.0195,1.0034,0.00,0.00,-0.06,-2.59,1.33,40.19
0.977672,-0.0098,-0.0200,1.0039,-0.18,-0.06,-0.06,-2.59,1.33,40.19
1.037724,-0.0098,-0.0210,1.0034,-0.24,0.00,-0.06,-2.59,1.33,40.19
1.037724,-0.0098,-0.0210,1.0034,0.00,0.00,-0.06,-2.59,1.33,40.19
1.068061,-0.0098,-0.0190,1.0034,0.00,0.00,-0.12,-2.59,1.33,40.19
1.068061,-0.0103,-0.0195,1.0034,0.00,0.00,-0.06,-2.59,1.33,40.19
1.128861,-0.0088,-0.0205,1.0039,0.00,0.00,-0.12,-2.59,1.33,40.19
1.128861,-0.0093,-0.0205,1.0039,0.00,0.00,-0.12,-2.59,1.33,40.19
1.160330,-0.0083,-0.0200,1.0029,0.12,0.00,-0.06,-2.59,1.33,40.19
1.160330,-0.0083,-0.0200,1.0039,0.00,0.00,-0.06,-2.59,1.33,40.19
1.188987,-0.0083,-0.0205,1.0039,-0.06,-0.06,-0.06,-2.59,1.33,40.19
1.188987,-0.0078,-0.0200,1.0034,-0.12,0.00,-0.06,-2.59,1.33,40.19
1.248739,-0.0078,-0.0205,1.0044,0.00,0.00,-0.06,-2.59,1.33,40.19
1.248739,-0.0088,-0.0200,1.0049,0.00,0.00,0.00,-2.59,1.33,40.19
1.280392,-0.0078,-0.0205,1.0034,0.00,0.00,-0.06,-2.59,1.33,40.19
1.280392,-0.0088,-0.0195,1.0044,0.00,0.00,-0.12,-2.59,1.33,40.19
1.310759,-0.0088,-0.0205,1.0034,0.00,0.00,-0.06,-2.59,1.33,40.19
1.310759,-0.0098,-0.0210,1.0039,0.06,0.00,0.00,-2.59,1.33,40.19
1.368784,-0.0107,-0.0195,1.0034,0.00,0.06,-0.06,-2.59,1.33,40.19
1.368784,-0.0103,-0.0195,1.0039,0.00,0.00,-0.06,-2.59,1.33,40.19
1.397758,-0.0098,-0.0200,1.0044,-0.18,0.00,0.00,-2.59,1.33,40.19
1.397758,-0.0093,-0.0200,1.0039,-0.06,0.00,0.00,-2.59,1.33,40.19
1.429315,-0.0098,-0.0210,1.0039,0.00,0.00,0.00,-2.59,1.33,40.19
1.429315,-0.0093,-0.0205,1.0034,0.00,0.00,-0.06,-2.59,1.33,40.19
1.599953,-0.0088,-0.0205,1.0044,0.00,0.00,-0.06,-2.59,1.33,40.19
1.599953,-0.0083,-0.0215,1.0044,0.00,-0.06,0.00,-2.59,1.33,40.19
1.599985,-0.0098,-0.0215,1.0024,0.00,0.00,-0.06,-2.59,1.33,40.19
1.599985,-0.0103,-0.0210,1.0034,0.12,0.06,-0.18,-2.59,1.33,40.19
1.599995,-0.0098,-0.0195,1.0029,0.06,0.00,-0.06,-2.59,1.33,40.19
1.599995,-0.0098,-0.0205,1.0029,0.06,0.00,-0.06,-2.59,1.33,40.19
1.610991,-0.0098,-0.0190,1.0029,0.00,0.00,-0.06,-2.59,1.33,40.19
1.610991,-0.0083,-0.0200,1.0034,0.00,0.00,-0.12,-2.59,1.33,40.19
1.639483,-0.0093,-0.0205,1.0034,0.06,0.00,-0.12,-2.59,1.33,40.19
1.639483,-0.0088,-0.0190,1.0029,0.00,0.00,-0.06,-2.59,1.33,40.19
1.670682,-0.0093,-0.0195,1.0059,0.00,0.00,-0.06,-2.59,1.33,40.19
1.670682,-0.0088,-0.0210,1.0044,0.00,0.00,0.00,-2.59,1.33,40.19
1.727767,-0.0083,-0.0195,1.0049,0.06,0.00,-0.06,-2.59,1.33,40.19
1.727767,-0.0093,-0.0200,1.0034,0.00,0.00,-0.06,-2.59,1.33,40.19
1.758655,-0.0093,-0.0210,1.0034,0.00,0.00,0.00,-2.59,1.33,40.19
1.758655,-0.0088,-0.0205,1.0054,0.00,0.00,-0.06,-2.59,1.33,40.19
1.792618,-0.0093,-0.0205,1.0039,0.00,0.00,-0.12,-2.59,1.33,40.19
1.792618,-0.0088,-0.0200,1.0044,0.06,0.00,-0.12,-2.59,1.33,40.19
1.848597,-0.0098,-0.0205,1.0039,0.00,0.00,-0.06,-2.59,1.33,40.19
1.848597,-0.0088,-0.0200,1.0029,0.00,0.00,-0.06,-2.59,1.33,40.19
1.877685,-0.0093,-0.0205,1.0034,0.06,0.00,0.00,-2.59,1.33,40.19
1.877685,-0.0098,-0.0200,1.0034,0.06,0.06,-0.06,-2.59,1.33,40.19
1.908768,-0.0093,-0.0200,1.0034,0.00,0.06,-0.06,-2.59,1.33,40.19
1.908768,-0.0098,-0.0200,1.0034,0.00,0.00,-0.06,-2.59,1.33,40.19
1.968905,-0.0103,-0.0195,1.0044,0.00,0.00,-0.06,-2.59,1.33,40.19
1.968905,-0.0093,-0.0195,1.0039,0.00,0.00,0.00,-2.59,1.33,40.19
1.997671,-0.0098,-0.0195,1.0039,0.00,0.00,0.00,-2.59,1.33,40.19
1.997671,-0.0093,-0.0200,1.0044,0.00,0.00,-0.06,-2.59,1.33,40.19
2.031463,-0.0098,-0.0200,1.0044,0.06,0.00,-0.06,-2.59,1.33,40.19
2.031463,-0.0098,-0.0200,1.0039,0.06,0.06,-0.06,-2.59,1.33,40.19
2.090017,-0.0088,-0.0200,1.0039,0.00,0.00,-0.12,-2.59,1.33,40.19
2.090017,-0.0098,-0.0205,1.0034,0.06,0.00,-0.06,-2.59,1.33,40.19
2.120489,-0.0093,-0.0195,1.0049,0.12,0.00,0.00,-2.59,1.33,40.19
2.120489,-0.0093,-0.0190,1.0049,0.00,0.00,0.00,-2.59,1.33,40.19
2.148473,-0.0098,-0.0195,1.0034,-0.12,-0.06,0.00,-2.59,1.33,40.19
2.148473,-0.0093,-0.0205,1.0044,-0.31,-0.06,0.00,-2.59,1.33,40.19
2.209011,-0.0088,-0.0205,1.0034,-0.12,0.00,-0.12,-2.59,1.33,40.19
2.209011,-0.0088,-0.0205,1.0034,0.00,0.00,-0.06,-2.59,1.33,40.19
2.237745,-0.0093,-0.0190,1.0034,0.12,-0.06,0.00,-2.59,1.33,40.19
2.237745,-0.0107,-0.0176,1.0029,-0.18,-0.12,0.00,-2.59,1.33,40.19
2.268864,-0.0098,-0.0200,1.0039,-0.06,-0.18,0.00,-2.59,1.33,40.19
2.268864,-0.0103,-0.0190,1.0029,-0.31,-0.18,0.06,-2.59,1.33,40.19
2.328840,-0.0093,-0.0210,1.0015,-0.43,-0.06,0.00,-2.59,1.33,40.19
2.328840,-0.0093,-0.0210,1.0029,-0.55,-0.12,0.00,-2.59,1.33,40.19
2.357753,-0.0098,-0.0200,1.0039,-0.55,-0.06,0.00,-2.59,1.33,40.19
2.357753,-0.0098,-0.0210,1.0029,-0.43,0.00,-0.06,-2.59,1.33,40.19
2.388946,-0.0088,-0.0220,1.0034,-0.06,0.00,-0.12,-2.59,1.33,40.19
2.388946,-0.0083,-0.0215,1.0029,0.06,0.00,0.00,-2.59,1.33,40.19
2.448853,-0.0078,-0.0215,1.0034,0.49,0.06,-0.06,-2.59,1.33,40.19
2.448853,-0.0093,-0.0186,1.0034,0.61,0.12,0.00,-2.60,1.33,40.19
2.477769,-0.0127,-0.0190,1.0029,0.37,0.18,0.00,-2.60,1.33,40.19
2.477769,-0.0049,-0.0220,1.0098,0.12,0.00,0.06,-2.60,1.33,40.19
2.538585,-0.0107,-0.0190,1.0063,-0.18,-0.12,0.00,-2.60,1.33,40.19
2.538585,-0.0088,-0.0195,1.0083,-0.43,0.24,0.00,-2.60,1.32,40.19
2.567932,-0.0054,-0.0190,1.0000,-0.61,-0.49,-0.18,-2.60,1.32,40.19
2.567932,-0.0127,-0.0249,1.0068,-0.18,0.12,0.00,-2.60,1.32,40.19
2.598372,-0.0073,-0.0181,1.0034,-0.37,0.00,-0.06,-2.60,1.32,40.19
2.598372,-0.0093,-0.0254,1.0059,0.06,-0.24,0.00,-2.60,1.32,40.19
2.657668,-0.0083,-0.0225,1.0029,0.00,0.06,0.00,-2.60,1.32,40.19
2.657668,-0.0078,-0.0225,1.0049,0.37,0.06,-0.06,-2.60,1.32,40.19
2.688779,-0.0107,-0.0200,1.0068,0.61,0.12,0.00,-2.60,1.32,40.19
2.688779,-0.0103,-0.0190,1.0054,0.12,-0.18,0.06,-2.60,1.32,40.19
2.717631,-0.0083,-0.0205,1.0039,-0.31,0.00,0.00,-2.60,1.32,40.19
2.717631,-0.0093,-0.0190,1.0010,-0.61,-0.37,-0.12,-2.60,1.32,40.19
2.778527,-0.0103,-0.0234,1.0068,-0.12,0.00,0.06,-2.60,1.32,40.19
2.778527,-0.0078,-0.0190,1.0024,-0.12,0.00,0.00,-2.60,1.32,40.19
2.821776,-0.0093,-0.0210,1.0039,-0.24,-0.12,-0.06,-2.60,1.32,40.19
2.821776,-0.0098,-0.0195,1.0039,0.00,0.00,0.00,-2.60,1.32,40.19
2.837714,-0.0093,-0.0215,1.0034,0.00,0.00,0.00,-2.60,1.32,40.19
2.837714,-0.0088,-0.0210,1.0044,0.67,0.00,-0.06,-2.60,1.32,40.19
2.898511,-0.0093,-0.0195,1.0039,0.12,0.00,-0.06,-2.60,1.32,40.19
2.898511,-0.0088,-0.0205,1.0049,0.00,0.00,-0.06,-2.60,1.32,40.19
2.927903,-0.0088,-0.0200,1.0054,-0.37,0.00,-0.06,-2.60,1.32,40.19
2.927903,-0.0088,-0.0229,1.0039,-0.12,0.00,-0.06,-2.60,1.32,40.19
2.958368,-0.0078,-0.0210,1.0059,-0.12,0.00,0.00,-2.60,1.32,40.19
2.958368,-0.0088,-0.0210,1.0039,-0.24,-0.06,-0.06,-2.60,1.32,40.19
3.020730,-0.0088,-0.0205,1.0049,-0.12,0.00,-0.06,-2.60,1.32,40.19
3.020730,-0.0083,-0.0225,1.0044,-0.06,0.00,-0.12,-2.60,1.32,40.19
3.048172,-0.0078,-0.0205,1.0039,0.31,0.06,0.00,-2.60,1.32,40.19
3.048172,-0.0083,-0.0200,1.0029,0.18,0.06,-0.06,-2.60,1.32,40.19
3.080319,-0.0088,-0.0200,1.0039,0.00,0.00,-0.06,-2.60,1.32,40.19
3.080319,-0.0083,-0.0205,1.0034,-0.12,0.00,-0.06,-2.60,1.32,40.19
3.138529,-0.0088,-0.0210,1.0044,-0.06,0.00,0.00,-2.60,1.32,40.19
3.138529,-0.0088,-0.0210,1.0034,0.00,0.06,-0.06,-2.60,1.32,40.19
3.168002,-0.0083,-0.0205,1.0034,-0.12,0.00,-0.06,-2.60,1.32,40.19
3.168002,-0.0088,-0.0210,1.0039,-0.12,0.00,-0.06,-2.60,1.32,40.19
3.198393,-0.0083,-0.0210,1.0044,-0.12,0.00,0.00,-2.60,1.32,40.19
3.198393,-0.0078,-0.0220,1.0039,0.00,0.00,-0.06,-2.60,1.32,40.19
3.258362,-0.0093,-0.0215,1.0039,0.00,0.06,-0.06,-2.60,1.32,40.19
3.258362,-0.0083,-0.0210,1.0039,-0.06,0.00,-0.06,-2.60,1.32,40.19
3.288641,-0.0088,-0.0210,1.0054,-0.12,0.00,-0.06,-2.60,1.32,40.19
3.288641,-0.0093,-0.0229,1.0044,-0.06,0.00,-0.06,-2.61,1.32,40.19
3.317606,-0.0093,-0.0215,1.0054,0.00,0.00,-0.06,-2.61,1.32,40.19
3.317606,-0.0093,-0.0225,1.0044,0.00,0.00,-0.06,-2.61,1.32,40.19
3.378481,-0.0088,-0.0215,1.0029,0.00,0.00,-0.06,-2.61,1.32,40.19
3.378481,-0.0093,-0.0215,1.0039,0.06,0.00,0.00,-2.61,1.32,40.19
3.408799,-0.0093,-0.0215,1.0029,0.06,0.00,-0.06,-2.61,1.32,40.19
3.408799,-0.0088,-0.0200,1.0029,0.06,0.00,-0.06,-2.61,1.32,40.19
3.438211,-0.0088,-0.0200,1.0034,0.00,0.00,-0.06,-2.61,1.32,40.19
3.438211,-0.0088,-0.0195,1.0034,0.00,0.00,-0.06,-2.61,1.32,40.19
3.498395,-0.0093,-0.0205,1.0024,0.00,0.00,-0.06,-2.61,1.32,40.19
3.498395,-0.0088,-0.0210,1.0029,-0.06,0.00,0.00,-2.61,1.32,40.19
3.530504,-0.0088,-0.0205,1.0044,-0.06,0.00,-0.06,-2.61,1.32,40.19
3.530504,-0.0093,-0.0215,1.0054,0.00,0.00,-0.12,-2.61,1.32,40.19
3.560290,-0.0088,-0.0210,1.0049,0.00,0.00,-0.06,-2.61,1.32,40.19
3.560290,-0.0083,-0.0210,1.0044,0.00,0.00,-0.06,-2.61,1.32,40.19
3.620359,-0.0083,-0.0215,1.0039,0.06,0.00,0.00,-2.61,1.32,40.19
3.620359,-0.0083,-0.0205,1.0034,0.06,0.00,0.00,-2.61,1.32,40.19
3.650704,-0.0078,-0.0210,1.0039,-0.06,0.00,-0.06,-2.61,1.32,40.19
3.650704,-0.0083,-0.0205,1.0054,0.00,0.00,-0.06,-2.61,1.32,40.19
3.678921,-0.0078,-0.0200,1.0034,-0.06,0.00,0.00,-2.61,1.32,40.19
3.678921,-0.0078,-0.0210,1.0034,0.00,0.00,-0.06,-2.61,1.32,40.19
3.738703,-0.0083,-0.0205,1.0039,-0.06,0.00,0.00,-2.61,1.32,40.19
3.738703,-0.0083,-0.0210,1.0029,0.00,0.00,0.00,-2.61,1.32,40.19
3.768050,-0.0078,-0.0215,1.0039,0.00,0.00,-0.06,-2.61,1.32,40.19
3.768050,-0.0093,-0.0210,1.0034,0.00,0.00,-0.06,-2.61,1.32,40.19
3.805278,-0.0083,-0.0210,1.0034,0.00,0.00,-0.06,-2.61,1.32,40.19
3.805278,-0.0088,-0.0210,1.0034,0.00,0.00,-0.06,-2.61,1.32,40.19
3.858388,-0.0088,-0.0210,1.0049,0.00,0.00,0.00,-2.61,1.32,40.18
3.858388,-0.0088,-0.0215,1.0039,0.00,0.00,-0.06,-2.61,1.32,40.18
3.889067,-0.0088,-0.0210,1.0039,0.00,0.00,-0.12,-2.61,1.32,40.18
3.889067,-0.0093,-0.0210,1.0044,0.00,0.00,-0.06,-2.61,1.32,40.18
3.947957,-0.0093,-0.0215,1.0044,0.00,0.00,0.00,-2.61,1.32,40.18
3.947957,-0.0098,-0.0220,1.0049,0.00,0.00,0.00,-2.61,1.32,40.18
3.978803,-0.0088,-0.0210,1.0029,0.00,0.00,0.00,-2.61,1.32,40.18
3.978803,-0.0093,-0.0215,1.0034,0.00,0.00,-0.06,-2.61,1.32,40.18
4.007779,-0.0088,-0.0210,1.0034,0.00,0.00,-0.06,-2.61,1.32,40.18
4.007779,-0.0083,-0.0215,1.0029,0.00,0.00,-0.06,-2.61,1.32,40.18
4.068751,-0.0078,-0.0210,1.0034,0.00,0.00,-0.06,-2.61,1.32,40.18
4.068751,-0.0083,-0.0205,1.0029,0.00,0.00,-0.06,-2.62,1.32,40.18
4.098810,-0.0083,-0.0200,1.0034,0.00,0.00,-0.06,-2.62,1.31,40.18
4.098810,-0.0088,-0.0200,1.0034,-0.06,0.00,0.00,-2.62,1.31,40.18
4.132077,-0.0083,-0.0215,1.0039,-0.06,0.00,0.00,-2.62,1.31,40.18
4.132077,-0.0083,-0.0205,1.0039,0.00,0.00,-0.06,-2.62,1.31,40.18
4.188535,-0.0083,-0.0215,1.0024,0.00,0.00,-0.06,-2.62,1.31,40.18
4.188535,-0.0088,-0.0210,1.0039,0.00,0.00,0.00,-2.62,1.31,40.18
4.224260,-0.0083,-0.0220,1.0044,0.00,0.00,-0.12,-2.62,1.31,40.18
4.224260,-0.0078,-0.0215,1.0039,0.00,0.00,0.00,-2.62,1.31,40.18
4.255030,-0.0083,-0.0215,1.0049,0.00,0.00,0.00,-2.62,1.31,40.18
4.255030,-0.0078,-0.0210,1.0044,0.00,0.00,-0.06,-2.62,1.31,40.18
4.308091,-0.0088,-0.0210,1.0034,0.00,0.00,0.00,-2.62,1.31,40.18
4.308091,-0.0083,-0.0210,1.0044,0.00,0.00,-0.06,-2.62,1.31,40.18
4.337743,-0.0078,-0.0210,1.0029,0.00,0.00,-0.06,-2.62,1.31,40.18
4.337743,-0.0078,-0.0205,1.0029,0.00,0.00,-0.06,-2.62,1.31,40.18
4.369598,-0.0088,-0.0215,1.0039,0.00,0.00,0.00,-2.62,1.31,40.18
4.369598,-0.0088,-0.0210,1.0034,0.00,0.00,-0.12,-2.62,1.31,40.18
4.428157,-0.0093,-0.0205,1.0039,0.00,0.00,-0.06,-2.62,1.31,40.18
4.428157,-0.0088,-0.0200,1.0039,0.00,0.00,0.00,-2.62,1.31,40.18
4.457807,-0.0093,-0.0210,1.0029,0.00,0.00,-0.06,-2.62,1.31,40.18
4.457807,-0.0088,-0.0210,1.0029,0.00,0.00,-0.06,-2.62,1.31,40.18
4.487874,-0.0093,-0.0215,1.0039,0.00,0.00,0.00,-2.62,1.31,40.18
4.487874,-0.0088,-0.0210,1.0029,0.00,0.00,-0.06,-2.63,1.31,40.18
4.548693,-0.0083,-0.0210,1.0034,-0.06,0.00,-0.06,-2.63,1.31,40.18
4.548693,-0.0088,-0.0215,1.0039,0.00,0.00,-0.06,-2.63,1.31,40.18
4.577601,-0.0093,-0.0210,1.0034,0.00,0.00,-0.06,-2.63,1.31,40.18
4.577601,-0.0083,-0.0215,1.0034,0.00,0.00,-0.06,-2.63,1.31,40.18
4.608210,-0.0098,-0.0215,1.0044,0.00,0.00,0.00,-2.63,1.31,40.18
4.608210,-0.0098,-0.0215,1.0039,0.00,0.00,-0.06,-2.63,1.31,40.18
4.667882,-0.0083,-0.0215,1.0049,0.00,0.00,-0.06,-2.63,1.31,40.18
4.667882,-0.0088,-0.0215,1.0034,0.00,0.00,-0.06,-2.63,1.31,40.18
4.697548,-0.0078,-0.0210,1.0044,0.00,0.00,-0.06,-2.63,1.31,40.18
4.697548,-0.0088,-0.0210,1.0034,0.00,0.00,-0.06,-2.63,1.31,40.18
4.727908,-0.0083,-0.0205,1.0039,0.00,0.00,-0.12,-2.63,1.31,40.18
4.727908,-0.0083,-0.0205,1.0029,0.00,0.00,-0.12,-2.63,1.31,40.18
4.788001,-0.0083,-0.0210,1.0039,0.00,0.00,-0.06,-2.63,1.31,40.18
4.788001,-0.0083,-0.0210,1.0034,0.00,0.00,-0.06,-2.63,1.31,40.18
4.817511,-0.0083,-0.0210,1.0039,0.00,0.00,-0.06,-2.63,1.31,40.18
4.817511,-0.0083,-0.0215,1.0034,0.00,0.00,-0.06,-2.63,1.31,40.18
4.850797,-0.0088,-0.0215,1.0034,0.00,0.00,-0.06,-2.63,1.31,40.18
4.850797,-0.0088,-0.0215,1.0034,0.00,0.00,0.00,-2.63,1.31,40.18
4.908230,-0.0098,-0.0220,1.0029,0.00,0.00,-0.06,-2.63,1.31,40.18
4.908230,-0.0078,-0.0215,1.0039,0.00,0.00,-0.06,-2.63,1.31,40.18
4.938815,-0.0088,-0.0210,1.0034,0.00,0.00,-0.06,-2.63,1.31,40.18
4.938815,-0.0093,-0.0210,1.0039,0.00,0.00,0.00,-2.63,1.31,40.18
4.969055,-0.0093,-0.0215,1.0029,0.00,0.00,0.00,-2.63,1.31,40.18
4.969055,-0.0088,-0.0215,1.0029,0.00,0.00,-0.06,-2.63,1.31,40.18
5.028017,-0.0088,-0.0210,1.0034,0.00,0.00,0.00,-2.63,1.31,40.18
5.028017,-0.0098,-0.0215,1.0039,0.00,0.00,0.00,-2.63,1.31,40.18
5.057681,-0.0093,-0.0210,1.0029,0.00,0.00,-0.06,-2.63,1.31,40.18
5.057681,-0.0083,-0.0220,1.0034,0.00,0.00,-0.06,-2.63,1.31,40.18
5.088031,-0.0083,-0.0215,1.0054,0.00,-0.06,-0.06,-2.63,1.31,40.18
5.088031,-0.0093,-0.0210,1.0029,0.00,0.00,0.00,-2.63,1.31,40.18
5.149447,-0.0088,-0.0210,1.0039,0.00,0.00,-0.06,-2.63,1.31,40.18
5.149447,-0.0083,-0.0220,1.0039,0.00,0.00,0.00,-2.63,1.31,40.18
5.177933,-0.0078,-0.0220,1.0039,0.00,0.00,-0.06,-2.63,1.31,40.18
5.177933,-0.0088,-0.0205,1.0039,0.00,0.00,-0.06,-2.63,1.31,40.18
5.208045,-0.0088,-0.0210,1.0034,0.00,0.00,-0.06,-2.63,1.31,40.18
5.208045,-0.0078,-0.0215,1.0054,0.00,0.00,-0.06,-2.63,1.31,40.18
5.267977,-0.0088,-0.0210,1.0044,0.00,0.00,-0.06,-2.63,1.31,40.18
5.267977,-0.0088,-0.0215,1.0029,0.00,0.00,-0.12,-2.64,1.31,40.18
5.298666,-0.0083,-0.0210,1.0029,0.00,0.00,-0.06,-2.64,1.31,40.18
5.298666,-0.0088,-0.0210,1.0024,0.00,0.00,0.00,-2.64,1.31,40.18
5.357760,-0.0083,-0.0210,1.0029,0.00,0.00,0.00,-2.64,1.31,40.18
5.357760,-0.0083,-0.0210,1.0029,0.00,0.00,-0.06,-2.64,1.31,40.18
5.388016,-0.0083,-0.0210,1.0034,0.00,0.00,-0.06,-2.64,1.31,40.18
5.388016,-0.0093,-0.0215,1.0034,0.00,0.00,-0.06,-2.64,1.31,40.18
5.417680,-0.0093,-0.0205,1.0034,0.00,0.00,0.00,-2.64,1.31,40.18
5.417680,-0.0098,-0.0215,1.0044,0.00,0.06,-0.06,-2.64,1.31,40.18
5.477818,-0.0093,-0.0210,1.0039,0.00,0.00,0.00,-2.64,1.31,40.18
5.477818,-0.0088,-0.0215,1.0039,0.00,0.00,-0.06,-2.64,1.31,40.18
5.507880,-0.0093,-0.0215,1.0044,0.00,0.00,0.00,-2.64,1.31,40.18
5.507880,-0.0083,-0.0210,1.0039,0.00,0.00,-0.06,-2.64,1.31,40.18
5.538216,-0.0093,-0.0215,1.0049,0.00,0.00,-0.12,-2.64,1.31,40.18
5.538216,-0.0098,-0.0210,1.0034,0.00,0.00,-0.06,-2.64,1.31,40.18
5.598714,-0.0098,-0.0210,1.0034,0.00,0.00,0.00,-2.64,1.31,40.18
5.598714,-0.0098,-0.0210,1.0034,0.00,0.00,-0.12,-2.64,1.31,40.18
5.629053,-0.0098,-0.0215,1.0034,0.00,0.00,-0.06,-2.64,1.31,40.18
5.629053,-0.0093,-0.0210,1.0029,0.00,0.00,0.00,-2.64,1.31,40.18
5.659138,-0.0098,-0.0220,1.0034,0.00,0.00,-0.06,-2.64,1.31,40.18
5.659138,-0.0083,-0.0220,1.0029,0.00,0.00,-0.06,-2.64,1.31,40.18
5.719215,-0.0093,-0.0215,1.0039,0.00,0.00,-0.06,-2.64,1.31,40.18
5.719215,-0.0078,-0.0210,1.0049,0.00,0.00,0.00,-2.64,1.31,40.18
5.748111,-0.0083,-0.0215,1.0029,0.00,0.00,-0.06,-2.64,1.31,40.18
5.748111,-0.0088,-0.0215,1.0034,0.00,-0.06,0.00,-2.64,1.31,40.18
5.778128,-0.0088,-0.0215,1.0034,0.00,0.00,0.00,-2.64,1.31,40.18
5.778128,-0.0088,-0.0220,1.0039,0.00,0.00,-0.06,-2.64,1.31,40.18
5.838228,-0.0083,-0.0215,1.0034,0.00,0.06,-0.06,-2.64,1.31,40.18
5.838228,-0.0083,-0.0215,1.0044,0.00,0.00,-0.06,-2.64,1.31,40.18
5.880166,-0.0078,-0.0215,1.0029,0.00,0.00,-0.06,-2.64,1.31,40.18
5.880166,-0.0078,-0.0205,1.0039,0.00,0.00,-0.06,-2.64,1.31,40.18
5.898017,-0.0083,-0.0210,1.0039,0.00,0.00,-0.12,-2.64,1.31,40.18
5.898017,-0.0093,-0.0215,1.0029,0.00,0.00,0.00,-2.64,1.31,40.18
5.958176,-0.0083,-0.0215,1.0034,0.00,0.00,-0.06,-2.64,1.31,40.18
5.958176,-0.0088,-0.0215,1.0039,0.00,0.00,-0.06,-2.64,1.31,40.18
5.987757,-0.0083,-0.0210,1.0029,-0.06,0.00,0.00,-2.64,1.31,40.18
5.987757,-0.0083,-0.0215,1.0034,0.00,0.00,0.00,-2.64,1.31,40.18
6.021981,-0.0088,-0.0210,1.0034,0.00,0.00,-0.06,-2.64,1.31,40.18
6.021981,-0.0098,-0.0210,1.0039,0.00,0.00,-0.06,-2.64,1.30,40.18
6.078126,-0.0083,-0.0205,1.0029,0.00,0.00,-0.06,-2.64,1.30,40.18
6.078126,-0.0098,-0.0215,1.0039,-0.06,0.00,-0.06,-2.64,1.30,40.18
6.108556,-0.0088,-0.0210,1.0039,0.00,0.00,-0.06,-2.64,1.30,40.18
6.108556,-0.0093,-0.0210,1.0034,0.00,0.00,0.00,-2.64,1.30,40.18
6.138121,-0.0093,-0.0215,1.0034,0.00,0.00,0.00,-2.64,1.30,40.17
6.138121,-0.0093,-0.0215,1.0034,0.00,0.00,0.00,-2.64,1.31,40.17
6.198092,-0.0088,-0.0210,1.0039,0.00,0.00,0.00,-2.64,1.31,40.17
6.198092,-0.0088,-0.0215,1.0029,0.00,0.00,0.00,-2.64,1.31,40.17
6.228104,-0.0088,-0.0215,1.0034,0.00,0.00,-0.06,-2.64,1.31,40.17
6.228104,-0.0093,-0.0210,1.0039,0.00,0.00,-0.06,-2.65,1.31,40.17
6.258129,-0.0083,-0.0210,1.0034,0.00,0.00,-0.06,-2.65,1.31,40.17
6.258129,-0.0088,-0.0210,1.0034,0.00,0.00,0.00,-2.65,1.31,40.17
6.318077,-0.0093,-0.0215,1.0039,0.00,0.06,0.00,-2.65,1.31,40.17
6.318077,-0.0083,-0.0210,1.0039,0.00,0.00,0.00,-2.65,1.31,40.17
6.347902,-0.0083,-0.0215,1.0044,0.00,0.00,0.00,-2.65,1.31,40.17
6.347902,-0.0083,-0.0210,1.0034,0.00,0.00,-0.06,-2.65,1.30,40.17
6.378130,-0.0083,-0.0220,1.0039,0.00,0.00,-0.06,-2.65,1.30,40.17
6.378130,-0.0083,-0.0215,1.0034,0.00,0.00,0.00,-2.65,1.30,40.17
6.438234,-0.0083,-0.0215,1.0044,0.00,0.00,-0.06,-2.65,1.30,40.17
6.438234,-0.0083,-0.0210,1.0039,0.00,0.00,0.00,-2.65,1.30,40.17
6.468154,-0.0088,-0.0215,1.0039,0.00,0.00,-0.06,-2.65,1.30,40.17
6.468154,-0.0083,-0.0215,1.0034,0.00,0.00,0.00,-2.65,1.30,40.17
6.498135,-0.0078,-0.0220,1.0034,0.00,0.00,-0.06,-2.65,1.30,40.17
6.498135,-0.0083,-0.0215,1.0034,0.00,0.00,-0.06,-2.65,1.30,40.17
6.558126,-0.0093,-0.0220,1.0039,0.00,0.00,0.00,-2.65,1.30,40.17
6.558126,-0.0088,-0.0205,1.0034,0.00,0.00,-0.06,-2.65,1.30,40.17
6.587641,-0.0093,-0.0220,1.0029,0.00,0.00,-0.12,-2.65,1.30,40.17
6.587641,-0.0088,-0.0210,1.0034,0.00,0.00,0.00,-2.65,1.30,40.17
6.617878,-0.0093,-0.0220,1.0039,0.00,0.00,-0.06,-2.65,1.30,40.17
6.617878,-0.0083,-0.0205,1.0039,0.00,0.00,0.00,-2.65,1.30,40.17
6.707846,-0.0093,-0.0205,1.0029,0.00,0.00,-0.06,-2.65,1.30,40.17
6.707846,-0.0083,-0.0210,1.0034,0.00,0.00,-0.06,-2.65,1.30,40.17
6.709476,-0.0098,-0.0215,1.0039,0.00,0.00,0.00,-2.65,1.30,40.17
6.709476,-0.0088,-0.0210,1.0029,0.00,0.00,0.00,-2.65,1.30,40.17
6.769273,-0.0088,-0.0215,1.0029,0.00,0.00,0.00,-2.65,1.30,40.17
6.769273,-0.0088,-0.0210,1.0034,0.00,0.00,-0.06,-2.65,1.30,40.17
6.797927,-0.0088,-0.0210,1.0034,0.00,0.00,-0.06,-2.65,1.30,40.17
6.797927,-0.0088,-0.0205,1.0029,0.00,0.00,-0.12,-2.65,1.30,40.17
6.827944,-0.0088,-0.0210,1.0024,0.00,0.00,0.00,-2.65,1.30,40.17
6.827944,-0.0083,-0.0210,1.0024,0.00,0.00,-0.06,-2.65,1.30,40.17
6.887900,-0.0093,-0.0205,1.0020,0.00,0.00,-0.06,-2.65,1.30,40.17
6.887900,-0.0088,-0.0220,1.0029,0.00,0.00,-0.12,-2.65,1.30,40.17
6.928904,-0.0078,-0.0215,1.0034,0.00,0.00,-0.06,-2.65,1.30,40.17
6.928904,-0.0083,-0.0210,1.0029,0.00,0.00,-0.06,-2.65,1.30,40.17
6.947810,-0.0083,-0.0210,1.0039,0.00,0.00,0.00,-2.65,1.30,40.17
6.947810,-0.0098,-0.0205,1.0034,0.00,0.00,0.00,-2.65,1.30,40.17
7.007719,-0.0088,-0.0215,1.0020,0.00,0.00,-0.06,-2.65,1.30,40.17
7.007719,-0.0088,-0.0220,1.0029,0.00,0.00,-0.06,-2.65,1.30,40.17
7.038226,-0.0088,-0.0215,1.0029,0.00,0.00,-0.06,-2.65,1.30,40.17
7.038226,-0.0088,-0.0215,1.0029,0.00,0.00,-0.12,-2.65,1.30,40.17
7.069016,-0.0093,-0.0220,1.0024,0.00,0.00,0.00,-2.65,1.30,40.17
7.069016,-0.0083,-0.0215,1.0034,0.00,0.00,-0.06,-2.65,1.30,40.17
7.127855,-0.0093,-0.0205,1.0034,0.00,0.00,-0.06,-2.65,1.30,40.17
7.127855,-0.0078,-0.0205,1.0034,0.00,0.00,-0.06,-2.65,1.30,40.17
7.158317,-0.0093,-0.0210,1.0029,0.00,0.00,-0.12,-2.65,1.30,40.17
7.158317,-0.0088,-0.0215,1.0029,0.00,0.00,-0.06,-2.65,1.30,40.17
7.188609,-0.0093,-0.0215,1.0034,0.00,0.00,-0.06,-2.65,1.30,40.17
7.188609,-0.0083,-0.0210,1.0029,0.00,0.00,-0.12,-2.65,1.30,40.17
7.247841,-0.0088,-0.0215,1.0034,0.00,0.00,-0.12,-2.65,1.30,40.17
7.247841,-0.0083,-0.0215,1.0024,0.00,0.00,-0.12,-2.65,1.30,40.17
7.278124,-0.0083,-0.0210,1.0029,0.00,0.00,0.00,-2.65,1.30,40.17
7.278124,-0.0083,-0.0215,1.0034,0.00,0.00,-0.12,-2.65,1.30,40.17
7.311069,-0.0088,-0.0215,1.0029,0.00,0.00,-0.06,-2.65,1.30,40.17
7.311069,-0.0083,-0.0215,1.0034,0.00,0.00,-0.06,-2.65,1.30,40.17
7.367890,-0.0088,-0.0215,1.0024,0.00,0.00,-0.06,-2.65,1.30,40.17
7.367890,-0.0093,-0.0215,1.0044,0.00,0.00,0.00,-2.65,1.30,40.17
7.398601,-0.0088,-0.0220,1.0024,0.00,0.00,0.00,-2.65,1.30,40.17
7.398601,-0.0088,-0.0210,1.0044,0.00,0.06,-0.06,-2.65,1.30,40.17
7.427827,-0.0083,-0.0210,1.0029,0.00,0.00,-0.06,-2.65,1.30,40.17
7.427827,-0.0083,-0.0210,1.0029,0.00,0.00,-0.06,-2.65,1.30,40.17
7.488537,-0.0088,-0.0215,1.0029,0.00,0.00,-0.12,-2.65,1.30,40.17
7.488537,-0.0088,-0.0215,1.0029,0.00,0.00,-0.06,-2.65,1.30,40.17
7.517955,-0.0093,-0.0215,1.0029,0.00,0.00,0.00,-2.65,1.30,40.17
7.517955,-0.0083,-0.0215,1.0029,0.00,0.00,-0.06,-2.65,1.30,40.17
7.547807,-0.0098,-0.0210,1.0029,0.00,0.00,0.00,-2.65,1.30,40.17
7.547807,-0.0083,-0.0210,1.0024,0.00,0.00,0.00,-2.65,1.30,40.17
7.607931,-0.0088,-0.0220,1.0020,0.00,0.00,-0.06,-2.65,1.30,40.17
7.607931,-0.0083,-0.0220,1.0039,0.00,0.00,-0.06,-2.66,1.30,40.17
7.637888,-0.0083,-0.0215,1.0034,0.00,0.00,-0.06,-2.66,1.30,40.17
7.637888,-0.0088,-0.0215,1.0044,0.00,0.00,-0.06,-2.66,1.30,40.17
7.668850,-0.0098,-0.0210,1.0039,0.00,0.00,0.00,-2.66,1.30,40.17
7.668850,-0.0083,-0.0210,1.0039,0.00,0.00,0.00,-2.66,1.30,40.17
7.727897,-0.0093,-0.0210,1.0044,0.00,0.00,-0.06,-2.66,1.30,40.17
7.727897,-0.0083,-0.0210,1.0039,0.00,0.00,-0.06,-2.66,1.30,40.17
7.757934,-0.0083,-0.0205,1.0039,0.00,0.06,-0.06,-2.66,1.30,40.17
7.757934,-0.0098,-0.0215,1.0029,0.00,0.00,-0.06,-2.66,1.30,40.17
7.787844,-0.0083,-0.0220,1.0034,0.00,0.00,-0.06,-2.66,1.30,40.17
7.787844,-0.0088,-0.0215,1.0029,0.00,0.00,-0.06,-2.66,1.30,40.17
7.847914,-0.0093,-0.0215,1.0039,0.00,0.00,-0.06,-2.66,1.30,40.17
7.847914,-0.0083,-0.0215,1.0029,0.00,0.00,-0.06,-2.66,1.30,40.17
7.878164,-0.0088,-0.0215,1.0039,0.00,0.00,0.00,-2.66,1.30,40.17
7.878164,-0.0088,-0.0215,1.0034,0.00,0.00,0.00,-2.66,1.30,40.17
7.907911,-0.0098,-0.0210,1.0034,0.00,0.00,-0.06,-2.66,1.30,40.17
7.907911,-0.0088,-0.0220,1.0044,0.00,0.06,0.00,-2.66,1.30,40.17
7.967809,-0.0093,-0.0210,1.0044,0.00,0.00,-0.06,-2.66,1.30,40.17
7.967809,-0.0098,-0.0210,1.0034,0.00,0.00,0.00,-2.66,1.30,40.17
7.997928,-0.0088,-0.0210,1.0039,0.00,0.00,-0.06,-2.66,1.30,40.17
7.997928,-0.0093,-0.0215,1.0034,0.00,0.00,-0.06,-2.66,1.30,40.17
8.028867,-0.0083,-0.0210,1.0039,0.00,0.00,-0.06,-2.66,1.30,40.17
8.028867,-0.0078,-0.0205,1.0029,0.00,0.06,-0.06,-2.66,1.30,40.17
8.087884,-0.0093,-0.0220,1.0034,0.00,0.00,-0.12,-2.66,1.30,40.17
8.087884,-0.0083,-0.0215,1.0034,0.00,0.00,-0.06,-2.66,1.30,40.17
8.118445,-0.0083,-0.0215,1.0034,0.00,0.00,-0.12,-2.66,1.30,40.17
8.118445,-0.0098,-0.0215,1.0029,0.00,0.00,-0.06,-2.66,1.30,40.17
8.179449,-0.0088,-0.0210,1.0024,0.00,0.00,-0.06,-2.66,1.30,40.17
8.179449,-0.0083,-0.0220,1.0039,0.00,0.00,0.00,-2.66,1.30,40.17
8.208828,-0.0093,-0.0215,1.0029,0.00,0.00,0.00,-2.66,1.30,40.17
8.208828,-0.0093,-0.0210,1.0039,0.00,0.00,0.00,-2.66,1.30,40.17
8.238159,-0.0088,-0.0220,1.0034,0.00,0.00,0.00,-2.66,1.30,40.17
8.238159,-0.0083,-0.0220,1.0034,0.00,0.00,-0.06,-2.66,1.30,40.17
8.298272,-0.0093,-0.0210,1.0024,0.00,0.00,0.00,-2.66,1.30,40.17
8.298272,-0.0093,-0.0210,1.0034,0.00,0.00,0.00,-2.66,1.30,40.17
8.327900,-0.0093,-0.0215,1.0034,0.00,0.00,-0.12,-2.66,1.30,40.17
8.327900,-0.0088,-0.0215,1.0039,0.00,0.00,-0.12,-2.66,1.30,40.17
8.358203,-0.0083,-0.0215,1.0034,-0.06,0.00,-0.06,-2.66,1.30,40.17
8.358203,-0.0093,-0.0220,1.0029,0.00,0.00,-0.06,-2.66,1.30,40.17
8.418172,-0.0093,-0.0210,1.0049,0.00,0.00,-0.06,-2.66,1.30,40.17
8.418172,-0.0083,-0.0215,1.0044,0.00,0.00,-0.06,-2.66,1.30,40.17
8.447911,-0.0088,-0.0215,1.0034,0.00,0.00,0.00,-2.66,1.30,40.17
8.447911,-0.0088,-0.0215,1.0024,0.00,0.00,0.00,-2.66,1.30,40.17
8.478269,-0.0093,-0.0210,1.0034,0.00,0.00,0.00,-2.66,1.30,40.17
8.478269,-0.0083,-0.0210,1.0039,0.00,0.00,-0.06,-2.66,1.30,40.17
8.538190,-0.0088,-0.0200,1.0034,0.00,0.00,-0.06,-2.66,1.30,40.17
8.538190,-0.0083,-0.0210,1.0034,0.00,0.00,-0.06,-2.66,1.30,40.17
8.567931,-0.0093,-0.0210,1.0029,0.00,0.00,-0.12,-2.66,1.30,40.17
8.567931,-0.0088,-0.0205,1.0034,0.00,0.00,0.00,-2.66,1.30,40.17
8.597953,-0.0078,-0.0205,1.0044,0.00,0.00,-0.06,-2.66,1.30,40.17
8.597953,-0.0093,-0.0215,1.0039,0.00,0.00,0.00,-2.66,1.30,40.17
8.658245,-0.0083,-0.0225,1.0034,0.00,0.00,-0.12,-2.66,1.30,40.17
8.658245,-0.0088,-0.0220,1.0034,0.00,0.00,0.00,-2.66,1.30,40.17
8.688958,-0.0088,-0.0215,1.0029,0.00,0.00,-0.06,-2.66,1.30,40.17
8.688958,-0.0088,-0.0215,1.0039,0.00,0.00,-0.06,-2.66,1.30,40.17
8.718240,-0.0093,-0.0210,1.0039,0.00,0.00,-0.06,-2.66,1.30,40.17
8.718240,-0.0088,-0.0220,1.0044,0.00,0.00,0.00,-2.66,1.30,40.17
8.778260,-0.0083,-0.0210,1.0034,0.00,0.00,-0.06,-2.66,1.30,40.17
8.778260,-0.0088,-0.0210,1.0049,-0.06,0.00,-0.06,-2.66,1.30,40.17
8.807727,-0.0093,-0.0215,1.0044,0.00,0.00,-0.06,-2.66,1.30,40.17
8.807727,-0.0073,-0.0215,1.0049,-0.06,0.00,-0.06,-2.66,1.30,40.17
8.838161,-0.0083,-0.0229,1.0034,-0.06,0.00,-0.06,-2.66,1.30,40.17
8.838161,-0.0093,-0.0215,1.0044,0.00,0.00,-0.06,-2.66,1.30,40.17
8.898615,-0.0088,-0.0215,1.0034,0.00,0.00,-0.06,-2.66,1.30,40.17
8.898615,-0.0083,-0.0220,1.0034,0.00,0.00,-0.06,-2.66,1.30,40.17
8.927857,-0.0088,-0.0210,1.0024,0.06,0.00,-0.06,-2.66,1.30,40.17
8.927857,-0.0088,-0.0210,1.0034,0.00,0.00,-0.06,-2.66,1.30,40.17
8.971284,-0.0093,-0.0220,1.0034,0.00,0.00,-0.06,-2.66,1.30,40.17
8.971284,-0.0093,-0.0225,1.0039,0.00,0.00,-0.12,-2.66,1.30,40.17
9.019762,-0.0078,-0.0229,1.0029,0.00,0.00,-0.06,-2.66,1.30,40.17
9.019762,-0.0078,-0.0225,1.0044,0.06,0.00,0.00,-2.66,1.30,40.17
9.047846,-0.0083,-0.0220,1.0034,0.18,0.06,0.00,-2.66,1.30,40.17
9.047846,-0.0083,-0.0210,1.0044,0.24,0.00,-0.06,-2.66,1.30,40.17
9.078167,-0.0093,-0.0210,1.0039,0.24,0.00,-0.06,-2.66,1.30,40.17
9.078167,-0.0088,-0.0200,1.0034,0.12,0.00,0.00,-2.66,1.30,40.17
9.138179,-0.0093,-0.0210,1.0039,0.00,0.00,-0.06,-2.66,1.30,40.17
9.138179,-0.0088,-0.0210,1.0039,0.00,0.00,-0.12,-2.66,1.30,40.17
9.167869,-0.0083,-0.0215,1.0034,-0.06,0.00,-0.06,-2.66,1.30,40.17
9.167869,-0.0132,-0.0229,1.0039,-0.37,0.24,0.00,-2.66,1.30,40.17
9.198220,-0.0068,-0.0229,0.9990,-0.12,0.31,-0.06,-2.66,1.30,40.17
9.198220,-0.0088,-0.0220,1.0039,0.43,0.00,-0.12,-2.66,1.30,40.16
9.258182,-0.0088,-0.0200,1.0039,0.18,0.06,0.00,-2.66,1.30,40.16
9.258182,-0.0083,-0.0205,1.0034,0.24,0.00,0.00,-2.66,1.30,40.16
9.287776,-0.0093,-0.0200,1.0024,-0.12,-0.06,0.00,-2.66,1.30,40.16
9.287776,-0.0093,-0.0210,1.0039,-0.18,0.00,0.00,-2.66,1.30,40.16
9.318180,-0.0059,-0.0225,1.0073,-0.06,0.00,0.00,-2.66,1.30,40.16
9.318180,-0.0078,-0.0195,0.9990,-0.18,0.00,-0.12,-2.66,1.30,40.16
9.378164,-0.0088,-0.0200,1.0020,-0.55,0.00,0.00,-2.66,1.30,40.16
9.378164,-0.0083,-0.0225,1.0029,-0.37,-0.12,0.00,-2.66,1.30,40.16
9.408094,-0.0088,-0.0220,1.0029,0.12,0.00,-0.06,-2.66,1.30,40.16
9.408094,-0.0088,-0.0210,1.0005,0.31,0.00,0.00,-2.66,1.30,40.16
9.438079,-0.0088,-0.0220,1.0059,0.24,0.12,0.00,-2.66,1.30,40.16
9.438079,-0.0078,-0.0205,1.0015,-0.06,0.00,-0.06,-2.66,1.30,40.16
9.498184,-0.0088,-0.0210,1.0020,0.00,0.00,0.00,-2.66,1.30,40.16
9.498184,-0.0088,-0.0220,1.0029,-0.12,-0.06,-0.06,-2.67,1.30,40.16
9.527902,-0.0093,-0.0220,1.0034,0.00,0.00,0.00,-2.67,1.30,40.16
9.527902,-0.0088,-0.0210,1.0049,-0.12,0.00,0.00,-2.67,1.30,40.16
9.587938,-0.0083,-0.0215,1.0044,0.00,0.00,0.00,-2.67,1.30,40.16
9.587938,-0.0098,-0.0225,1.0044,0.00,0.00,-0.06,-2.67,1.30,40.16
9.618934,-0.0093,-0.0210,1.0034,0.24,0.06,-0.12,-2.67,1.30,40.16
9.618934,-0.0078,-0.0210,1.0049,0.12,0.06,-0.12,-2.67,1.30,40.16
9.650488,-0.0098,-0.0215,1.0073,0.24,-0.06,-0.06,-2.67,1.30,40.16
9.650488,-0.0093,-0.0190,1.0039,-0.37,-0.06,0.00,-2.67,1.30,40.16
9.709293,-0.0093,-0.0229,1.0039,-0.18,-0.12,0.00,-2.67,1.30,40.16
9.709293,-0.0083,-0.0215,1.0044,-0.06,0.00,-0.06,-2.67,1.30,40.16
9.739070,-0.0068,-0.0239,1.0029,0.00,-0.06,-0.06,-2.67,1.30,40.16
9.739070,-0.0068,-0.0049,1.0942,4.76,0.67,0.06,-2.65,1.30,40.16
9.767853,0.0112,-0.0156,0.9927,-2.56,-0.49,-0.49,-2.64,1.27,40.17
9.767853,-0.0195,-0.0254,0.9824,2.08,0.55,0.12,-2.64,1.29,40.17
9.828691,-0.0068,-0.0083,0.9771,-0.92,-0.43,-0.06,-2.61,1.29,40.17
9.828691,-0.0156,-0.0347,1.0137,1.89,0.31,0.24,-2.63,1.29,40.17
9.858902,-0.0078,-0.0049,1.0044,-0.55,0.37,0.00,-2.59,1.29,40.17
9.858902,-0.0068,-0.0283,1.0054,-0.79,-0.61,-0.24,-2.63,1.29,40.17
9.887917,-0.0112,-0.0181,1.0083,0.31,0.31,0.00,-2.61,1.29,40.17
9.887917,-0.0054,-0.0229,1.0044,-1.34,-0.24,-0.12,-2.64,1.28,40.17
9.948696,-0.0098,-0.0225,1.0059,0.98,0.00,-0.06,-2.63,1.28,40.17
9.948696,-0.0088,-0.0195,1.0059,-1.28,-0.12,0.00,-2.64,1.28,40.17
9.990854,-0.0073,-0.0254,1.0034,0.43,-0.06,-0.06,-2.65,1.28,40.17
9.990854,-0.0098,-0.0186,1.0034,0.00,0.00,-0.12,-2.64,1.28,40.17
10.007802,-0.0083,-0.0239,1.0034,0.55,0.06,0.00,-2.64,1.28,40.17
10.007802,-0.0088,-0.0176,1.0034,0.49,0.06,0.00,-2.62,1.28,40.17
10.068694,-0.0088,-0.0220,1.0039,-0.31,0.00,0.00,-2.62,1.28,40.17
10.068694,-0.0093,-0.0200,1.0034,0.18,0.06,-0.12,-2.62,1.28,40.17
10.098909,-0.0078,-0.0200,1.0034,-0.31,0.00,-0.06,-2.62,1.28,40.17
10.098909,-0.0083,-0.0205,1.0034,0.24,0.00,-0.06,-2.62,1.28,40.17
10.127843,-0.0088,-0.0190,1.0020,-0.37,0.00,0.00,-2.62,1.28,40.17
10.127843,-0.0083,-0.0220,1.0029,-0.18,0.00,-0.06,-2.62,1.28,40.17
10.190595,-0.0098,-0.0210,1.0044,0.00,0.00,-0.06,-2.62,1.28,40.17
10.190595,-0.0088,-0.0220,1.0020,0.06,0.00,-0.06,-2.62,1.28,40.17
10.220234,-0.0083,-0.0210,1.0039,0.24,0.06,-0.06,-2.63,1.28,40.17
10.220234,-0.0088,-0.0210,1.0039,0.00,0.00,-0.12,-2.63,1.28,40.17
10.248322,-0.0088,-0.0220,1.0039,0.24,0.06,-0.12,-2.63,1.28,40.17
10.248322,-0.0093,-0.0210,1.0029,0.00,0.00,-0.06,-2.63,1.28,40.17
10.308655,-0.0093,-0.0215,1.0034,0.06,0.00,-0.06,-2.63,1.28,40.17
10.308655,-0.0088,-0.0200,1.0020,-0.12,0.00,-0.06,-2.63,1.28,40.17
10.338676,-0.0093,-0.0210,1.0020,-0.12,0.00,-0.06,-2.63,1.28,40.17
10.338676,-0.0093,-0.0215,1.0034,0.00,0.00,-0.06,-2.63,1.28,40.17
10.368697,-0.0088,-0.0215,1.0029,0.00,0.00,-0.06,-2.63,1.28,40.17
10.368697,-0.0088,-0.0215,1.0029,0.12,0.00,-0.06,-2.63,1.28,40.17
10.427985,-0.0088,-0.0205,1.0029,0.00,0.00,-0.12,-2.63,1.28,40.17
10.427985,-0.0088,-0.0210,1.0034,0.12,0.00,-0.06,-2.63,1.28,40.17
10.458927,-0.0088,-0.0200,1.0034,0.12,0.00,-0.06,-2.63,1.28,40.17
10.458927,-0.0093,-0.0205,1.0034,0.12,0.00,0.00,-2.63,1.28,40.17
10.487878,-0.0093,-0.0195,1.0034,-0.12,0.00,-0.06,-2.63,1.28,40.17
10.487878,-0.0088,-0.0215,1.0039,-0.18,0.00,0.00,-2.63,1.28,40.17
10.547892,-0.0093,-0.0205,1.0034,-0.06,0.00,-0.12,-2.63,1.28,40.17
10.547892,-0.0088,-0.0215,1.0029,0.00,0.06,-0.06,-2.63,1.28,40.17
10.578156,-0.0088,-0.0205,1.0044,0.12,0.06,-0.06,-2.63,1.29,40.17
10.578156,-0.0093,-0.0205,1.0029,0.00,0.00,0.00,-2.63,1.29,40.17
10.607968,-0.0088,-0.0205,1.0034,0.18,0.00,-0.06,-2.63,1.29,40.17
10.607968,-0.0098,-0.0215,1.0044,0.00,0.00,-0.06,-2.63,1.29,40.17
10.669083,-0.0098,-0.0190,1.0034,0.31,0.12,0.00,-2.63,1.29,40.17
10.669083,-0.0093,-0.0186,1.0020,0.00,0.00,0.00,-2.63,1.29,40.17
10.698344,-0.0112,-0.0200,1.0039,0.12,0.00,-0.06,-2.63,1.29,40.17
10.698344,-0.0039,-0.0215,1.0122,0.06,0.00,0.06,-2.63,1.29,40.17
10.728655,-0.0098,-0.0181,0.9980,0.37,-0.31,0.00,-2.63,1.29,40.17
10.728655,-0.0088,-0.0166,0.9966,0.00,0.06,0.00,-2.63,1.29,40.17
10.788751,-0.0117,-0.0205,1.0010,0.06,-0.12,0.00,-2.63,1.29,40.17
10.788751,-0.0088,-0.0205,1.0015,-0.06,0.00,0.00,-2.63,1.29,40.17
10.818237,-0.0103,-0.0195,1.0024,0.00,0.00,0.00,-2.63,1.29,40.17
10.818237,-0.0107,-0.0229,1.0054,0.00,0.06,0.00,-2.63,1.29,40.17
10.848652,-0.0068,-0.0210,1.0044,0.06,0.06,-0.06,-2.63,1.29,40.17
10.848652,-0.0088,-0.0215,1.0039,-0.18,0.00,-0.12,-2.63,1.29,40.17
10.908718,-0.0083,-0.0210,1.0049,0.00,-0.12,-0.18,-2.63,1.29,40.17
10.908718,-0.0112,-0.0200,1.0054,0.00,-0.12,-0.18,-2.63,1.29,40.17
10.938180,-0.0103,-0.0181,1.0049,0.00,-0.31,0.00,-2.63,1.29,40.18
10.938180,-0.0073,-0.0205,1.0010,-0.55,0.24,-0.12,-2.63,1.29,40.18
10.998971,-0.0103,-0.0190,1.0000,-0.06,-0.31,-0.31,-2.63,1.29,40.18
10.998971,-0.0098,-0.0220,1.0054,0.00,0.00,-0.06,-2.63,1.29,40.18
11.042033,-0.0068,-0.0190,1.0010,-0.12,-0.12,0.00,-2.63,1.29,40.18
11.042033,-0.0103,-0.0229,1.0044,-0.31,-0.12,0.00,-2.63,1.29,40.18
11.058886,-0.0088,-0.0195,1.0024,-0.12,-0.12,0.00,-2.63,1.29,40.18
11.058886,-0.0078,-0.0225,1.0024,0.18,0.06,0.00,-2.63,1.29,40.19
11.118910,-0.0098,-0.0195,1.0034,0.43,0.00,0.00,-2.63,1.29,40.19
11.118910,-0.0088,-0.0215,1.0044,-0.24,0.00,0.00,-2.63,1.29,40.19
11.147964,-0.0083,-0.0210,1.0034,0.00,0.00,-0.06,-2.63,1.29,40.19
11.147964,-0.0088,-0.0210,1.0029,-0.12,-0.06,-0.06,-2.63,1.29,40.19
11.177971,-0.0088,-0.0220,1.0029,0.31,0.00,-0.06,-2.63,1.29,40.19
11.177971,-0.0093,-0.0195,1.0034,-0.12,0.00,-0.06,-2.63,1.29,40.19
11.237894,-0.0093,-0.0210,1.0049,-0.06,0.00,0.00,-2.63,1.29,40.20
11.237894,-0.0093,-0.0200,1.0044,-0.06,-0.06,0.00,-2.64,1.29,40.20
11.267693,-0.0088,-0.0210,1.0044,0.00,0.00,-0.06,-2.64,1.29,40.20
11.267693,-0.0088,-0.0200,1.0039,0.00,0.00,-0.06,-2.64,1.29,40.20
11.297933,-0.0088,-0.0200,1.0039,-0.24,0.00,-0.06,-2.64,1.29,40.20
11.297933,-0.0078,-0.0200,1.0044,-0.18,0.00,0.00,-2.64,1.29,40.20
11.357964,-0.0093,-0.0215,1.0034,-0.06,0.00,0.00,-2.64,1.29,40.20
11.357964,-0.0088,-0.0210,1.0039,0.00,0.00,-0.06,-2.64,1.29,40.21
11.387776,-0.0083,-0.0210,1.0034,0.00,0.00,-0.06,-2.64,1.29,40.21
11.387776,-0.0083,-0.0200,1.0039,0.00,0.00,-0.06,-2.64,1.29,40.21
11.418882,-0.0088,-0.0210,1.0044,0.00,0.00,-0.06,-2.64,1.29,40.22
11.418882,-0.0078,-0.0215,1.0034,0.06,0.00,0.00,-2.64,1.29,40.22
11.478242,-0.0083,-0.0205,1.0049,0.00,0.00,0.00,-2.64,1.29,40.22
11.478242,-0.0083,-0.0200,1.0039,-0.06,0.00,0.00,-2.64,1.29,40.22
11.507904,-0.0088,-0.0205,1.0049,-0.18,0.00,0.00,-2.64,1.29,40.22
11.507904,-0.0088,-0.0220,1.0044,-0.06,0.00,0.00,-2.64,1.29,40.22
11.537907,-0.0088,-0.0215,1.0044,0.00,0.00,0.00,-2.64,1.29,40.22
11.537907,-0.0088,-0.0220,1.0049,0.00,0.00,0.00,-2.64,1.29,40.23
11.598794,-0.0098,-0.0210,1.0044,0.06,0.00,0.00,-2.64,1.29,40.23
11.598794,-0.0098,-0.0210,1.0034,0.00,0.00,-0.06,-2.64,1.29,40.23
11.627896,-0.0098,-0.0210,1.0039,0.12,0.00,-0.06,-2.64,1.29,40.23
11.627896,-0.0093,-0.0215,1.0044,0.06,0.00,0.00,-2.64,1.29,40.23
11.658372,-0.0088,-0.0200,1.0039,0.00,0.00,-0.06,-2.64,1.29,40.23
11.658372,-0.0103,-0.0200,1.0044,0.00,0.00,-0.06,-2.64,1.29,40.23
11.719659,-0.0093,-0.0205,1.0034,0.00,0.00,-0.06,-2.64,1.29,40.23
11.719659,-0.0098,-0.0215,1.0034,0.00,0.00,-0.06,-2.64,1.29,40.24
11.748315,-0.0098,-0.0215,1.0034,0.00,0.00,-0.06,-2.64,1.29,40.24
11.748315,-0.0098,-0.0215,1.0034,0.00,0.00,-0.06,-2.64,1.29,40.24
11.778114,-0.0088,-0.0215,1.0044,0.00,-0.12,-0.06,-2.64,1.29,40.24
11.778114,-0.0093,-0.0215,1.0039,0.00,0.00,-0.06,-2.64,1.29,40.24
11.838875,-0.0088,-0.0210,1.0039,0.00,-0.06,0.00,-2.64,1.29,40.24
11.838875,-0.0088,-0.0210,1.0044,0.00,0.00,-0.06,-2.64,1.29,40.24
11.867893,-0.0073,-0.0205,1.0044,0.00,0.00,0.00,-2.64,1.29,40.25
11.867893,-0.0083,-0.0215,1.0044,0.00,0.00,-0.06,-2.64,1.29,40.25
11.898609,-0.0073,-0.0210,1.0049,0.00,0.00,-0.06,-2.64,1.29,40.25
11.898609,-0.0083,-0.0215,1.0049,0.00,0.00,0.00,-2.64,1.28,40.25
11.958165,-0.0073,-0.0210,1.0049,0.00,0.00,0.00,-2.64,1.28,40.25
11.958165,-0.0073,-0.0210,1.0044,0.00,0.00,-0.06,-2.64,1.28,40.25
11.987905,-0.0073,-0.0215,1.0044,-0.06,0.00,0.00,-2.64,1.28,40.25
11.987905,-0.0078,-0.0205,1.0039,0.00,0.00,-0.06,-2.64,1.28,40.25
12.020594,-0.0078,-0.0210,1.0044,0.00,0.00,-0.06,-2.64,1.28,40.26
12.020594,-0.0083,-0.0210,1.0034,0.00,0.00,0.00,-2.64,1.28,40.26
12.078094,-0.0083,-0.0205,1.0044,0.00,0.00,0.00,-2.64,1.28,40.26
12.078094,-0.0093,-0.0205,1.0039,0.00,0.00,-0.06,-2.65,1.28,40.26
12.107841,-0.0093,-0.0215,1.0034,-0.06,0.00,0.00,-2.65,1.28,40.26
12.107841,-0.0083,-0.0215,1.0034,0.00,0.00,-0.06,-2.65,1.28,40.26
12.138053,-0.0093,-0.0210,1.0049,0.00,0.00,-0.12,-2.65,1.28,40.26
12.138053,-0.0083,-0.0220,1.0044,0.00,0.06,-0.06,-2.65,1.28,40.26
12.200894,-0.0098,-0.0210,1.0039,0.00,0.00,-0.06,-2.65,1.28,40.27
12.200894,-0.0107,-0.0225,1.0034,0.00,0.00,-0.06,-2.65,1.28,40.27
12.229836,-0.0098,-0.0215,1.0039,0.00,0.00,-0.06,-2.65,1.28,40.27
12.229836,-0.0098,-0.0210,1.0044,0.00,0.00,-0.06,-2.65,1.28,40.27
12.260000,-0.0103,-0.0215,1.0044,0.00,0.00,-0.06,-2.65,1.28,40.28
12.260000,-0.0098,-0.0210,1.0034,0.00,0.00,-0.06,-2.65,1.28,40.28
12.318770,-0.0093,-0.0205,1.0039,-0.06,0.00,-0.06,-2.65,1.28,40.28
12.318770,-0.0098,-0.0215,1.0039,-0.06,0.00,-0.06,-2.65,1.28,40.28
12.347985,-0.0093,-0.0210,1.0024,0.00,0.00,-0.06,-2.65,1.28,40.28
12.347985,-0.0093,-0.0210,1.0029,0.00,0.00,-0.06,-2.65,1.28,40.28
12.408712,-0.0088,-0.0210,1.0039,0.00,0.00,0.00,-2.65,1.28,40.28
12.408712,-0.0088,-0.0200,1.0034,0.00,0.00,-0.06,-2.65,1.28,40.29
12.437867,-0.0088,-0.0215,1.0039,0.00,0.00,-0.06,-2.65,1.28,40.29
12.437867,-0.0083,-0.0205,1.0039,0.00,0.00,-0.06,-2.65,1.28,40.29
12.468589,-0.0083,-0.0215,1.0034,0.00,0.00,-0.06,-2.65,1.28,40.29
12.468589,-0.0073,-0.0210,1.0044,0.00,0.00,-0.06,-2.65,1.28,40.29
12.528690,-0.0073,-0.0215,1.0044,0.00,0.00,-0.06,-2.65,1.28,40.29
12.528690,-0.0078,-0.0210,1.0039,0.00,0.00,-0.06,-2.65,1.28,40.29
12.557989,-0.0083,-0.0210,1.0039,0.06,0.00,-0.06,-2.65,1.28,40.29
12.557989,-0.0078,-0.0205,1.0034,0.06,0.00,-0.06,-2.65,1.28,40.29
12.588551,-0.0078,-0.0205,1.0029,0.00,0.00,0.00,-2.65,1.28,40.30
12.588551,-0.0078,-0.0210,1.0039,0.00,0.06,-0.06,-2.65,1.28,40.30
12.647924,-0.0083,-0.0205,1.0034,0.00,0.00,-0.06,-2.65,1.28,40.30
12.647924,-0.0088,-0.0210,1.0034,-0.06,0.06,0.00,-2.65,1.28,40.30
12.678022,-0.0088,-0.0210,1.0034,0.00,0.06,-0.12,-2.65,1.28,40.30
12.678022,-0.0098,-0.0210,1.0034,0.00,0.00,-0.12,-2.65,1.28,40.30
12.708795,-0.0088,-0.0205,1.0039,0.00,0.00,-0.06,-2.65,1.28,40.30
12.708795,-0.0098,-0.0210,1.0029,0.00,0.00,-0.06,-2.65,1.28,40.30
12.768691,-0.0098,-0.0215,1.0039,0.00,0.00,0.00,-2.65,1.28,40.31
12.768691,-0.0088,-0.0205,1.0034,0.00,0.00,0.00,-2.65,1.28,40.31
12.797862,-0.0088,-0.0210,1.0044,0.00,0.00,0.00,-2.65,1.28,40.31
12.797862,-0.0098,-0.0210,1.0044,0.00,0.00,-0.06,-2.65,1.28,40.31
12.828713,-0.0098,-0.0210,1.0039,0.00,0.00,-0.12,-2.65,1.28,40.31
12.828713,-0.0093,-0.0210,1.0039,0.00,0.00,-0.06,-2.65,1.28,40.31
12.888171,-0.0093,-0.0210,1.0034,0.00,-0.06,-0.06,-2.65,1.28,40.31
12.888171,-0.0083,-0.0220,1.0034,0.06,0.00,-0.06,-2.65,1.28,40.31
12.918768,-0.0098,-0.0205,1.0039,0.00,0.00,-0.06,-2.65,1.28,40.31
12.918768,-0.0083,-0.0200,1.0029,0.00,0.00,-0.06,-2.65,1.28,40.32
12.948049,-0.0083,-0.0215,1.0039,0.00,0.00,0.00,-2.65,1.28,40.32
12.948049,-0.0073,-0.0210,1.0029,0.06,0.00,-0.06,-2.65,1.28,40.32
13.008804,-0.0083,-0.0205,1.0039,0.00,0.00,-0.06,-2.65,1.28,40.32
13.008804,-0.0088,-0.0210,1.0039,0.00,0.00,-0.06,-2.65,1.28,40.33
13.037879,-0.0083,-0.0220,1.0039,0.00,0.00,-0.06,-2.65,1.28,40.33
13.037879,-0.0078,-0.0205,1.0034,0.00,0.00,-0.06,-2.65,1.28,40.33
13.081388,-0.0078,-0.0210,1.0034,0.00,0.00,-0.06,-2.65,1.28,40.33
13.081388,-0.0088,-0.0210,1.0039,0.00,0.00,-0.06,-2.66,1.28,40.33
13.128696,-0.0093,-0.0210,1.0029,0.00,0.00,-0.06,-2.66,1.27,40.33
13.128696,-0.0093,-0.0210,1.0039,0.00,0.00,-0.06,-2.66,1.27,40.33
13.158064,-0.0083,-0.0220,1.0029,0.00,0.00,-0.12,-2.66,1.27,40.33
13.158064,-0.0078,-0.0210,1.0044,0.00,0.00,-0.12,-2.66,1.27,40.33
13.188251,-0.0088,-0.0215,1.0034,0.00,0.00,-0.06,-2.66,1.27,40.34
13.188251,-0.0078,-0.0205,1.0039,0.00,0.06,-0.12,-2.66,1.27,40.34
13.249074,-0.0088,-0.0220,1.0034,0.00,0.00,-0.06,-2.66,1.27,40.34
13.249074,-0.0088,-0.0220,1.0049,0.00,0.00,-0.06,-2.66,1.27,40.34
13.277839,-0.0088,-0.0215,1.0034,0.00,0.00,-0.06,-2.66,1.27,40.34
13.277839,-0.0088,-0.0205,1.0029,0.00,0.00,-0.06,-2.66,1.27,40.34
13.308727,-0.0098,-0.0210,1.0029,0.00,0.00,0.00,-2.66,1.27,40.34
13.308727,-0.0093,-0.0210,1.0044,0.00,0.00,-0.06,-2.66,1.27,40.34
13.368690,-0.0088,-0.0200,1.0039,0.00,0.00,0.00,-2.66,1.27,40.34
13.368690,-0.0093,-0.0210,1.0029,0.00,0.00,-0.06,-2.66,1.27,40.35
13.428758,-0.0093,-0.0210,1.0029,0.00,0.00,-0.06,-2.66,1.27,40.35
13.428758,-0.0083,-0.0215,1.0024,0.00,0.06,-0.12,-2.66,1.27,40.35
13.431920,-0.0088,-0.0210,1.0029,0.00,0.00,-0.12,-2.66,1.27,40.35
13.431920,-0.0083,-0.0210,1.0029,0.00,0.00,-0.06,-2.66,1.27,40.35
13.488984,-0.0083,-0.0215,1.0029,0.00,0.00,-0.06,-2.66,1.27,40.35
13.488984,-0.0093,-0.0215,1.0029,0.00,0.00,-0.12,-2.66,1.27,40.35
13.517878,-0.0083,-0.0215,1.0029,0.06,0.00,-0.12,-2.66,1.27,40.35
13.517878,-0.0088,-0.0210,1.0024,0.06,0.00,-0.06,-2.66,1.27,40.35
13.548854,-0.0083,-0.0210,1.0039,0.00,0.00,0.00,-2.66,1.27,40.36
13.548854,-0.0098,-0.0215,1.0039,0.00,0.00,-0.06,-2.66,1.27,40.36
13.607885,-0.0083,-0.0210,1.0049,0.00,0.00,-0.06,-2.66,1.27,40.36
13.607885,-0.0078,-0.0210,1.0034,0.00,0.00,-0.12,-2.66,1.27,40.36
13.638727,-0.0088,-0.0205,1.0039,-0.12,0.00,-0.06,-2.66,1.27,40.36
13.638727,-0.0093,-0.0220,1.0044,0.00,0.00,-0.12,-2.66,1.27,40.36
13.667940,-0.0093,-0.0200,1.0039,0.00,0.00,-0.06,-2.66,1.27,40.36
13.667940,-0.0078,-0.0215,1.0034,0.00,0.00,-0.12,-2.66,1.27,40.36
13.728462,-0.0088,-0.0205,1.0034,0.00,0.00,-0.06,-2.66,1.27,40.36
13.728462,-0.0088,-0.0215,1.0039,0.00,0.00,-0.06,-2.66,1.27,40.36
13.757963,-0.0098,-0.0210,1.0029,0.00,0.00,-0.06,-2.66,1.27,40.37
13.757963,-0.0088,-0.0215,1.0039,0.00,0.00,-0.06,-2.66,1.27,40.37
13.818706,-0.0083,-0.0200,1.0034,0.00,0.00,0.00,-2.66,1.27,40.37
13.818706,-0.0083,-0.0220,1.0034,0.00,0.00,-0.06,-2.66,1.27,40.37
13.847757,-0.0093,-0.0215,1.0029,0.00,0.00,0.00,-2.66,1.27,40.37
13.847757,-0.0093,-0.0210,1.0034,0.00,0.00,-0.06,-2.66,1.27,40.37
13.878487,-0.0078,-0.0210,1.0034,0.00,0.00,-0.06,-2.66,1.27,40.37
13.878487,-0.0093,-0.0210,1.0024,0.00,0.00,-0.06,-2.66,1.27,40.37
13.938421,-0.0088,-0.0220,1.0039,0.00,0.00,-0.06,-2.66,1.27,40.37
13.938421,-0.0093,-0.0220,1.0039,0.00,0.00,-0.06,-2.66,1.27,40.38
13.967743,-0.0088,-0.0215,1.0029,0.00,0.00,0.00,-2.66,1.27,40.38
13.967743,-0.0088,-0.0200,1.0029,-0.06,0.00,0.00,-2.66,1.27,40.38
13.998574,-0.0083,-0.0205,1.0029,-0.06,0.00,-0.06,-2.66,1.27,40.38
13.998574,-0.0083,-0.0215,1.0029,0.00,0.00,-0.06,-2.66,1.27,40.38
14.058563,-0.0083,-0.0210,1.0039,0.00,0.00,-0.06,-2.66,1.27,40.39
14.058563,-0.0098,-0.0210,1.0034,0.00,0.00,0.00,-2.66,1.27,40.39
14.100674,-0.0083,-0.0210,1.0034,0.00,-0.06,0.00,-2.66,1.27,40.39
14.100674,-0.0088,-0.0210,1.0029,0.00,0.00,-0.06,-2.66,1.27,40.39
14.117902,-0.0088,-0.0205,1.0034,0.00,0.00,-0.06,-2.66,1.27,40.39
14.117902,-0.0078,-0.0210,1.0039,0.00,0.00,-0.12,-2.66,1.27,40.39
14.178723,-0.0088,-0.0210,1.0039,-0.06,0.00,-0.06,-2.66,1.27,40.39
14.178723,-0.0088,-0.0215,1.0039,0.00,0.00,-0.06,-2.66,1.27,40.39
14.207824,-0.0093,-0.0210,1.0044,0.06,0.00,0.00,-2.66,1.27,40.39
14.207824,-0.0088,-0.0210,1.0044,0.00,0.06,-0.06,-2.66,1.27,40.39
14.238711,-0.0088,-0.0210,1.0034,0.00,0.00,-0.06,-2.66,1.27,40.40
14.238711,-0.0093,-0.0210,1.0034,0.06,0.00,-0.12,-2.66,1.27,40.40
14.298882,-0.0083,-0.0210,1.0034,0.00,0.00,-0.06,-2.66,1.27,40.40
14.298882,-0.0083,-0.0200,1.0024,0.00,0.00,-0.06,-2.66,1.27,40.40
14.327937,-0.0093,-0.0210,1.0039,0.06,0.00,-0.06,-2.66,1.27,40.40
14.327937,-0.0083,-0.0210,1.0024,0.00,0.00,0.00,-2.66,1.27,40.40
14.358877,-0.0078,-0.0210,1.0034,0.00,0.00,-0.06,-2.66,1.27,40.40
14.358877,-0.0093,-0.0210,1.0029,0.00,0.00,0.00,-2.66,1.27,40.40
14.419120,-0.0093,-0.0210,1.0029,0.00,0.00,-0.06,-2.66,1.27,40.40
14.419120,-0.0088,-0.0200,1.0044,0.00,0.00,-0.12,-2.66,1.27,40.40
14.448041,-0.0083,-0.0215,1.0039,-0.06,0.00,-0.12,-2.66,1.27,40.41
14.448041,-0.0088,-0.0215,1.0039,0.00,0.00,0.00,-2.66,1.27,40.41
14.478747,-0.0098,-0.0205,1.0044,0.00,0.00,-0.12,-2.67,1.27,40.41
14.478747,-0.0093,-0.0210,1.0049,0.00,0.00,-0.12,-2.67,1.27,40.41
14.538778,-0.0093,-0.0210,1.0029,0.00,0.00,0.00,-2.67,1.27,40.41
14.538778,-0.0088,-0.0220,1.0024,0.00,0.00,-0.06,-2.67,1.27,40.41
14.568016,-0.0088,-0.0210,1.0039,0.00,0.00,-0.06,-2.67,1.27,40.41
14.568016,-0.0088,-0.0210,1.0034,0.06,0.00,-0.06,-2.67,1.27,40.41
14.598760,-0.0088,-0.0225,1.0039,0.00,0.00,-0.06,-2.67,1.27,40.41
14.598760,-0.0088,-0.0215,1.0049,0.00,0.00,0.00,-2.67,1.27,40.41
14.658756,-0.0083,-0.0215,1.0039,0.00,0.00,-0.06,-2.67,1.27,40.41
14.658756,-0.0083,-0.0210,1.0029,0.00,0.00,-0.12,-2.67,1.27,40.42
14.688344,-0.0083,-0.0210,1.0029,0.06,0.00,-0.06,-2.67,1.27,40.42
14.688344,-0.0088,-0.0215,1.0039,0.00,0.00,-0.06,-2.67,1.27,40.42
14.718846,-0.0093,-0.0215,1.0039,0.00,0.00,-0.06,-2.67,1.27,40.42
14.718846,-0.0088,-0.0200,1.0039,0.00,0.00,-0.06,-2.67,1.27,40.42
14.780150,-0.0083,-0.0220,1.0029,0.00,0.00,-0.06,-2.67,1.27,40.42
14.780150,-0.0088,-0.0215,1.0039,0.00,0.00,0.00,-2.67,1.27,40.42
14.810073,-0.0083,-0.0215,1.0039,0.00,0.00,-0.06,-2.67,1.27,40.42
14.810073,-0.0098,-0.0225,1.0034,0.00,0.00,-0.06,-2.67,1.27,40.42
14.841028,-0.0083,-0.0205,1.0034,0.00,0.00,-0.06,-2.67,1.27,40.42
14.841028,-0.0083,-0.0220,1.0029,0.00,0.00,0.00,-2.67,1.27,40.42
14.898726,-0.0088,-0.0215,1.0044,0.00,0.00,-0.06,-2.67,1.27,40.43
14.898726,-0.0088,-0.0210,1.0039,0.00,0.00,-0.12,-2.67,1.27,40.43
14.928085,-0.0083,-0.0205,1.0034,0.00,0.00,-0.06,-2.67,1.27,40.43
14.928085,-0.0088,-0.0210,1.0034,0.00,0.00,-0.06,-2.67,1.27,40.43
14.958754,-0.0093,-0.0205,1.0039,0.00,0.00,-0.06,-2.67,1.27,40.43
14.958754,-0.0093,-0.0205,1.0029,0.00,0.00,0.00,-2.67,1.27,40.44
15.022447,-0.0088,-0.0215,1.0044,0.00,0.00,0.00,-2.67,1.27,40.44
15.022447,-0.0088,-0.0210,1.0024,0.00,0.00,-0.06,-2.67,1.27,40.44
15.047960,-0.0088,-0.0205,1.0034,0.00,0.00,0.00,-2.67,1.27,40.44
15.047960,-0.0088,-0.0200,1.0044,0.00,0.00,-0.06,-2.67,1.27,40.44
15.078722,-0.0083,-0.0215,1.0039,0.00,-0.06,0.00,-2.67,1.27,40.44
15.078722,-0.0088,-0.0210,1.0034,0.00,0.00,-0.06,-2.67,1.27,40.44
15.138189,-0.0083,-0.0210,1.0034,0.00,0.00,-0.06,-2.67,1.27,40.44
15.138189,-0.0083,-0.0210,1.0039,0.00,0.00,-0.06,-2.67,1.27,40.44
15.168693,-0.0083,-0.0210,1.0029,0.00,0.00,-0.06,-2.67,1.27,40.44
15.168693,-0.0088,-0.0210,1.0029,0.00,0.00,-0.06,-2.67,1.27,40.44
15.228764,-0.0088,-0.0210,1.0029,0.00,0.00,-0.06,-2.67,1.27,40.45
15.228764,-0.0088,-0.0205,1.0044,0.00,0.00,-0.06,-2.67,1.27,40.45
15.257990,-0.0088,-0.0210,1.0034,0.00,0.06,-0.06,-2.67,1.27,40.45
15.257990,-0.0088,-0.0205,1.0034,0.00,0.00,0.00,-2.67,1.27,40.45
15.288762,-0.0083,-0.0215,1.0044,0.00,0.00,-0.06,-2.67,1.27,40.45
15.288762,-0.0083,-0.0215,1.0034,0.00,0.00,-0.06,-2.67,1.27,40.45
15.348006,-0.0083,-0.0215,1.0039,0.00,0.00,-0.06,-2.67,1.27,40.45
15.348006,-0.0093,-0.0210,1.0044,-0.06,0.00,-0.06,-2.67,1.27,40.45
15.377950,-0.0098,-0.0210,1.0044,0.00,0.00,0.00,-2.67,1.27,40.45
15.377950,-0.0088,-0.0205,1.0039,0.00,0.06,-0.06,-2.67,1.27,40.45
15.407998,-0.0093,-0.0205,1.0039,0.06,0.00,-0.06,-2.67,1.27,40.45
15.407998,-0.0093,-0.0210,1.0039,0.00,0.00,0.00,-2.67,1.27,40.46
15.468795,-0.0088,-0.0210,1.0044,0.00,0.00,-0.06,-2.67,1.27,40.46
15.468795,-0.0078,-0.0200,1.0039,-0.06,0.00,0.00,-2.67,1.27,40.46
15.497934,-0.0083,-0.0220,1.0039,-0.06,0.00,-0.06,-2.67,1.27,40.46
15.497934,-0.0088,-0.0225,1.0039,-0.06,0.00,-0.06,-2.67,1.27,40.46
15.528789,-0.0088,-0.0215,1.0034,-0.06,0.00,0.00,-2.67,1.27,40.46
15.528789,-0.0088,-0.0205,1.0039,0.00,0.00,-0.06,-2.68,1.27,40.46
15.588760,-0.0088,-0.0220,1.0029,0.00,0.00,-0.06,-2.68,1.27,40.46
15.588760,-0.0098,-0.0210,1.0029,0.00,0.00,-0.06,-2.68,1.27,40.46
15.618840,-0.0093,-0.0210,1.0034,0.06,0.00,-0.06,-2.68,1.27,40.46
15.618840,-0.0088,-0.0210,1.0034,0.06,0.00,-0.12,-2.68,1.27,40.46
15.647989,-0.0088,-0.0200,1.0034,0.00,0.00,-0.06,-2.68,1.27,40.46
15.647989,-0.0088,-0.0210,1.0034,-0.06,0.00,-0.06,-2.68,1.27,40.47
15.708024,-0.0088,-0.0200,1.0039,-0.06,0.00,0.00,-2.68,1.27,40.47
15.708024,-0.0088,-0.0210,1.0034,0.00,0.00,-0.06,-2.68,1.27,40.47
15.739019,-0.0093,-0.0210,1.0029,0.00,0.00,-0.06,-2.68,1.27,40.47
15.739019,-0.0093,-0.0205,1.0034,0.00,0.00,0.00,-2.68,1.27,40.47
15.768002,-0.0093,-0.0210,1.0034,0.00,0.00,0.00,-2.68,1.27,40.47
15.768002,-0.0098,-0.0210,1.0039,0.00,0.00,-0.06,-2.68,1.27,40.47
15.828740,-0.0088,-0.0210,1.0039,0.00,0.00,-0.06,-2.68,1.27,40.47
15.828740,-0.0098,-0.0205,1.0044,0.00,0.00,-0.06,-2.68,1.27,40.47
15.857954,-0.0093,-0.0205,1.0039,-0.06,0.00,-0.06,-2.68,1.27,40.47
15.857954,-0.0093,-0.0215,1.0044,0.00,0.00,0.00,-2.68,1.27,40.47
15.888741,-0.0083,-0.0215,1.0034,0.00,0.00,-0.06,-2.68,1.27,40.48
15.888741,-0.0083,-0.0205,1.0029,0.00,0.00,-0.06,-2.68,1.27,40.48
15.948818,-0.0078,-0.0210,1.0044,0.00,0.00,0.00,-2.68,1.27,40.48
15.948818,-0.0088,-0.0215,1.0024,0.00,0.00,-0.06,-2.68,1.27,40.48
15.977972,-0.0088,-0.0215,1.0034,0.00,0.00,0.00,-2.68,1.27,40.48
15.977972,-0.0093,-0.0205,1.0024,0.00,0.00,-0.06,-2.68,1.27,40.48
16.008760,-0.0093,-0.0210,1.0039,0.00,0.00,0.00,-2.68,1.27,40.48
16.008760,-0.0088,-0.0205,1.0034,-0.06,0.00,-0.06,-2.68,1.27,40.48
16.068782,-0.0078,-0.0215,1.0029,0.00,0.00,-0.12,-2.68,1.27,40.48
16.068782,-0.0093,-0.0215,1.0034,0.00,0.00,0.00,-2.68,1.27,40.48
16.097913,-0.0088,-0.0205,1.0029,0.00,0.06,0.00,-2.68,1.27,40.48
16.097913,-0.0088,-0.0220,1.0034,0.00,0.00,-0.06,-2.68,1.27,40.48
16.140827,-0.0088,-0.0210,1.0039,0.00,0.00,-0.06,-2.68,1.27,40.48
16.140827,-0.0083,-0.0210,1.0039,0.00,0.00,-0.06,-2.68,1.27,40.49
16.188756,-0.0088,-0.0215,1.0034,0.00,0.00,0.00,-2.68,1.27,40.49
16.188756,-0.0083,-0.0215,1.0034,-0.06,0.00,-0.12,-2.68,1.27,40.49
16.217993,-0.0093,-0.0220,1.0034,0.00,0.00,-0.06,-2.68,1.27,40.49
16.217993,-0.0083,-0.0220,1.0029,0.00,0.00,-0.06,-2.68,1.27,40.49
16.248030,-0.0088,-0.0215,1.0039,0.00,0.00,-0.06,-2.68,1.27,40.49
16.248030,-0.0083,-0.0210,1.0034,0.00,0.00,-0.06,-2.68,1.27,40.50
16.308766,-0.0093,-0.0210,1.0029,0.00,0.00,0.00,-2.68,1.27,40.50
16.308766,-0.0083,-0.0200,1.0034,0.06,0.00,0.00,-2.68,1.27,40.50
16.339388,-0.0093,-0.0220,1.0039,0.00,0.00,-0.12,-2.68,1.27,40.50
16.339388,-0.0083,-0.0210,1.0044,0.00,0.00,-0.06,-2.68,1.27,40.50
16.367936,-0.0088,-0.0220,1.0034,0.00,0.00,0.00,-2.68,1.27,40.50
16.367936,-0.0088,-0.0210,1.0034,0.00,0.00,-0.06,-2.68,1.27,40.50
16.428697,-0.0083,-0.0220,1.0044,0.00,0.00,-0.06,-2.68,1.27,40.50
16.428697,-0.0078,-0.0205,1.0049,0.06,0.00,-0.06,-2.68,1.27,40.50
16.457988,-0.0083,-0.0210,1.0034,0.00,0.00,-0.06,-2.68,1.27,40.50
16.457988,-0.0093,-0.0215,1.0044,0.06,0.00,-0.06,-2.68,1.27,40.50
16.488791,-0.0088,-0.0205,1.0034,0.00,0.00,-0.12,-2.68,1.27,40.50
16.488791,-0.0083,-0.0220,1.0039,0.00,0.00,-0.06,-2.68,1.27,40.50
16.548760,-0.0093,-0.0205,1.0024,-0.06,0.00,-0.06,-2.68,1.27,40.51
16.548760,-0.0088,-0.0205,1.0029,-0.06,0.00,-0.12,-2.68,1.27,40.51
16.578020,-0.0083,-0.0205,1.0024,0.00,0.00,0.00,-2.68,1.27,40.51
16.578020,-0.0088,-0.0215,1.0034,0.00,0.00,-0.06,-2.68,1.27,40.51
16.640052,-0.0093,-0.0215,1.0029,0.06,0.00,-0.06,-2.68,1.27,40.51
16.640052,-0.0078,-0.0215,1.0034,0.06,0.00,-0.12,-2.68,1.27,40.51
16.668650,-0.0083,-0.0220,1.0020,0.00,0.00,0.00,-2.68,1.27,40.51
16.668650,-0.0098,-0.0215,1.0029,0.00,0.00,0.00,-2.68,1.27,40.51
16.697965,-0.0083,-0.0215,1.0039,0.00,0.00,0.00,-2.68,1.27,40.51
16.697965,-0.0088,-0.0210,1.0029,0.00,0.00,-0.06,-2.68,1.27,40.51
16.757997,-0.0083,-0.0210,1.0039,0.00,0.00,-0.12,-2.68,1.27,40.51
16.757997,-0.0088,-0.0220,1.0039,0.00,0.00,-0.06,-2.68,1.27,40.51
16.788666,-0.0093,-0.0210,1.0034,0.00,0.00,0.00,-2.68,1.27,40.51
16.788666,-0.0088,-0.0215,1.0034,0.00,0.00,-0.12,-2.68,1.27,40.52
16.817932,-0.0083,-0.0210,1.0029,0.00,0.00,-0.06,-2.68,1.27,40.52
16.817932,-0.0088,-0.0205,1.0039,0.00,0.00,-0.06,-2.68,1.27,40.52
16.877879,-0.0083,-0.0200,1.0029,-0.06,0.00,-0.12,-2.68,1.27,40.52
16.877879,-0.0088,-0.0215,1.0039,0.00,0.00,-0.06,-2.68,1.27,40.52
16.908740,-0.0093,-0.0210,1.0044,0.00,0.06,-0.06,-2.68,1.27,40.52
16.908740,-0.0088,-0.0215,1.0015,-0.06,0.00,-0.06,-2.68,1.27,40.52
16.939042,-0.0093,-0.0215,1.0034,0.00,0.00,-0.06,-2.68,1.27,40.52
16.939042,-0.0088,-0.0210,1.0034,0.00,0.00,-0.06,-2.68,1.27,40.52
16.998768,-0.0083,-0.0215,1.0039,0.00,0.00,0.00,-2.68,1.27,40.52
16.998768,-0.0083,-0.0220,1.0029,0.00,0.00,-0.06,-2.68,1.27,40.52
17.028083,-0.0088,-0.0215,1.0044,0.00,0.00,-0.06,-2.68,1.27,40.52
17.028083,-0.0088,-0.0210,1.0034,0.00,0.00,-0.06,-2.68,1.27,40.52
17.059143,-0.0093,-0.0215,1.0034,0.00,0.00,-0.06,-2.68,1.27,40.53
17.059143,-0.0093,-0.0215,1.0024,0.00,0.00,-0.06,-2.68,1.27,40.53
17.118036,-0.0093,-0.0210,1.0034,0.00,0.00,-0.12,-2.68,1.27,40.53
17.118036,-0.0093,-0.0215,1.0034,0.00,0.00,0.00,-2.68,1.27,40.53
17.160861,-0.0103,-0.0215,1.0029,0.00,0.00,-0.06,-2.68,1.27,40.53
17.160861,-0.0088,-0.0210,1.0039,0.00,0.00,-0.12,-2.68,1.27,40.53
17.177959,-0.0098,-0.0215,1.0044,0.00,0.00,0.00,-2.68,1.27,40.53
17.177959,-0.0083,-0.0220,1.0029,0.00,0.00,0.00,-2.68,1.27,40.53
17.239340,-0.0088,-0.0210,1.0034,-0.06,0.00,0.00,-2.68,1.27,40.53
17.239340,-0.0088,-0.0215,1.0039,0.00,0.00,-0.06,-2.68,1.27,40.53
17.268166,-0.0083,-0.0220,1.0029,0.00,0.00,-0.06,-2.68,1.27,40.53
17.268166,-0.0083,-0.0210,1.0034,0.00,0.00,0.00,-2.68,1.27,40.53
17.298867,-0.0088,-0.0210,1.0034,0.00,0.00,-0.06,-2.68,1.27,40.53
17.298867,-0.0083,-0.0220,1.0034,0.00,0.00,-0.06,-2.68,1.27,40.53
17.358826,-0.0083,-0.0210,1.0039,0.00,0.00,-0.06,-2.68,1.27,40.54
17.358826,-0.0083,-0.0205,1.0034,0.00,0.00,-0.06,-2.68,1.27,40.54
17.388015,-0.0088,-0.0205,1.0049,0.00,0.00,-0.06,-2.68,1.27,40.54
17.388015,-0.0083,-0.0220,1.0039,-0.12,0.00,0.00,-2.68,1.27,40.54
17.418959,-0.0083,-0.0210,1.0024,0.00,0.00,0.00,-2.68,1.27,40.54
17.418959,-0.0093,-0.0215,1.0020,0.00,0.06,0.00,-2.68,1.27,40.54
17.478873,-0.0088,-0.0215,1.0029,0.00,0.00,0.00,-2.68,1.27,40.54
17.478873,-0.0083,-0.0210,1.0034,0.00,0.00,0.00,-2.68,1.27,40.55
17.508002,-0.0088,-0.0220,1.0039,0.00,0.00,-0.06,-2.68,1.27,40.55
17.508002,-0.0083,-0.0210,1.0039,0.06,0.00,-0.06,-2.68,1.27,40.55
17.539028,-0.0093,-0.0215,1.0034,0.00,0.00,-0.06,-2.68,1.27,40.55
17.539028,-0.0088,-0.0210,1.0034,0.00,0.00,-0.06,-2.68,1.27,40.55
17.598155,-0.0088,-0.0220,1.0034,0.00,0.00,-0.06,-2.68,1.27,40.55
17.598155,-0.0073,-0.0215,1.0029,0.00,0.00,-0.06,-2.68,1.27,40.55
17.628068,-0.0093,-0.0210,1.0029,0.00,0.00,-0.06,-2.68,1.27,40.55
17.628068,-0.0078,-0.0210,1.0034,0.00,0.00,-0.06,-2.68,1.27,40.55
17.658035,-0.0088,-0.0215,1.0034,0.00,0.00,0.00,-2.68,1.27,40.55
17.658035,-0.0088,-0.0215,1.0039,0.00,0.00,-0.06,-2.68,1.27,40.55
17.718809,-0.0083,-0.0210,1.0034,0.00,0.00,0.00,-2.68,1.27,40.55
17.718809,-0.0088,-0.0210,1.0039,0.00,0.00,0.00,-2.68,1.27,40.55
17.747989,-0.0083,-0.0215,1.0029,0.00,0.00,-0.06,-2.68,1.27,40.55
17.747989,-0.0098,-0.0210,1.0039,0.00,0.00,-0.06,-2.68,1.27,40.56
17.778997,-0.0093,-0.0220,1.0029,0.00,0.00,-0.12,-2.68,1.27,40.56
17.778997,-0.0093,-0.0215,1.0039,0.00,0.00,0.00,-2.68,1.27,40.56
17.839154,-0.0088,-0.0210,1.0039,0.00,0.00,-0.06,-2.68,1.27,40.56
17.839154,-0.0093,-0.0205,1.0044,0.06,0.00,-0.06,-2.68,1.27,40.56
17.868042,-0.0088,-0.0210,1.0034,0.00,0.00,-0.12,-2.68,1.27,40.56
17.868042,-0.0083,-0.0220,1.0034,0.00,0.00,0.00,-2.68,1.27,40.56
17.898760,-0.0098,-0.0220,1.0034,0.00,0.00,-0.06,-2.68,1.27,40.56
17.898760,-0.0083,-0.0220,1.0044,0.00,0.00,-0.12,-2.68,1.27,40.56
17.958864,-0.0093,-0.0215,1.0039,0.00,0.00,-0.06,-2.68,1.27,40.56
17.958864,-0.0088,-0.0210,1.0044,0.00,0.00,-0.06,-2.68,1.27,40.56
17.988042,-0.0088,-0.0220,1.0034,0.00,0.00,0.00,-2.68,1.27,40.56
17.988042,-0.0083,-0.0215,1.0029,0.00,0.00,0.00,-2.68,1.27,40.56
18.048824,-0.0088,-0.0215,1.0024,0.00,0.00,0.00,-2.68,1.27,40.56
18.048824,-0.0093,-0.0210,1.0029,0.00,0.00,-0.06,-2.68,1.27,40.56
18.078050,-0.0093,-0.0220,1.0034,0.00,0.00,-0.12,-2.68,1.27,40.57
18.078050,-0.0083,-0.0215,1.0029,0.00,0.00,-0.06,-2.68,1.27,40.57
18.108060,-0.0093,-0.0220,1.0034,0.00,0.00,-0.06,-2.68,1.27,40.57
18.108060,-0.0078,-0.0205,1.0039,0.00,0.00,-0.06,-2.69,1.27,40.57
18.168789,-0.0093,-0.0215,1.0034,0.00,0.00,-0.12,-2.69,1.27,40.57
18.168789,-0.0088,-0.0210,1.0044,-0.06,0.00,-0.06,-2.69,1.27,40.57
18.213540,-0.0088,-0.0210,1.0044,0.00,0.00,0.00,-2.69,1.27,40.57
18.213540,-0.0083,-0.0215,1.0039,0.00,0.00,-0.06,-2.69,1.27,40.57
18.228691,-0.0088,-0.0215,1.0039,0.00,0.00,-0.06,-2.69,1.27,40.57
18.228691,-0.0083,-0.0210,1.0049,0.00,0.00,0.00,-2.69,1.27,40.57
18.288889,-0.0088,-0.0215,1.0039,0.00,0.00,-0.06,-2.69,1.27,40.57
18.288889,-0.0083,-0.0205,1.0024,0.06,0.00,-0.06,-2.69,1.27,40.57
18.317976,-0.0083,-0.0210,1.0029,0.00,0.00,-0.06,-2.69,1.27,40.57
18.317976,-0.0088,-0.0210,1.0034,0.00,0.00,0.00,-2.69,1.27,40.57
18.349156,-0.0083,-0.0215,1.0034,-0.06,0.00,-0.12,-2.69,1.27,40.57
18.349156,-0.0088,-0.0220,1.0034,0.00,0.00,-0.06,-2.69,1.27,40.58
18.408858,-0.0078,-0.0220,1.0029,0.00,0.00,0.00,-2.69,1.27,40.58
18.408858,-0.0088,-0.0215,1.0034,0.00,0.00,0.00,-2.69,1.27,40.58
18.438375,-0.0088,-0.0210,1.0034,0.00,0.00,-0.06,-2.69,1.27,40.58
18.438375,-0.0088,-0.0210,1.0024,0.00,0.00,-0.06,-2.69,1.27,40.58
18.468848,-0.0093,-0.0205,1.0029,0.06,0.00,-0.06,-2.69,1.27,40.58
18.468848,-0.0088,-0.0210,1.0029,0.06,0.00,-0.06,-2.69,1.27,40.58
18.528832,-0.0093,-0.0205,1.0024,0.00,0.00,0.00,-2.69,1.27,40.58
18.528832,-0.0088,-0.0205,1.0029,0.00,0.00,-0.06,-2.69,1.27,40.58
18.558016,-0.0078,-0.0215,1.0034,-0.06,0.00,-0.06,-2.69,1.27,40.58
18.558016,-0.0093,-0.0225,1.0024,-0.12,0.00,-0.06,-2.69,1.27,40.58
18.588896,-0.0088,-0.0215,1.0049,-0.12,0.00,-0.06,-2.69,1.27,40.58
18.588896,-0.0083,-0.0220,1.0044,-0.06,0.00,0.00,-2.69,1.27,40.58
18.648451,-0.0078,-0.0225,1.0034,0.00,0.00,0.00,-2.69,1.27,40.58
18.648451,-0.0088,-0.0225,1.0024,0.06,0.00,-0.06,-2.69,1.27,40.58
18.678081,-0.0083,-0.0215,1.0024,0.06,0.06,-0.12,-2.69,1.27,40.58
18.678081,-0.0083,-0.0210,1.0029,0.06,0.00,-0.06,-2.69,1.27,40.59
18.708946,-0.0093,-0.0210,1.0034,0.00,0.00,-0.06,-2.69,1.27,40.59
18.708946,-0.0088,-0.0220,1.0024,0.00,0.00,0.00,-2.69,1.27,40.59
19.095821,-0.0093,-0.0210,1.0034,-0.06,-0.06,-0.12,-2.69,1.27,40.59
19.095821,-0.0088,-0.0205,1.0020,0.06,0.06,0.00,-2.69,1.27,40.59
19.095861,-0.0088,-0.0210,1.0039,0.06,0.00,-0.06,-2.69,1.27,40.59
19.095861,-0.0103,-0.0210,1.0029,0.06,0.00,-0.06,-2.69,1.27,40.59
19.095873,-0.0098,-0.0200,1.0034,0.06,0.00,0.00,-2.69,1.27,40.59
19.095873,-0.0093,-0.0200,1.0029,0.06,0.00,-0.06,-2.69,1.27,40.59
19.095883,-0.0088,-0.0205,1.0034,0.00,0.00,-0.06,-2.69,1.27,40.59
19.095883,-0.0093,-0.0210,1.0024,0.00,0.00,-0.06,-2.69,1.27,40.59
19.095893,-0.0093,-0.0205,1.0029,-0.06,0.00,0.00,-2.69,1.27,40.59
19.095893,-0.0088,-0.0225,1.0034,-0.06,-0.06,0.00,-2.69,1.27,40.59
19.095903,-0.0088,-0.0220,1.0039,0.00,0.00,-0.06,-2.69,1.27,40.59
19.095903,-0.0083,-0.0220,1.0020,0.00,0.00,-0.06,-2.69,1.27,40.59
19.095913,-0.0078,-0.0215,1.0029,0.06,0.00,-0.06,-2.69,1.27,40.59
19.095913,-0.0073,-0.0220,1.0039,0.00,0.00,-0.06,-2.69,1.27,40.60
19.095922,-0.0078,-0.0225,1.0034,0.00,0.00,0.00,-2.69,1.27,40.60
19.095922,-0.0078,-0.0225,1.0039,0.00,0.00,-0.06,-2.69,1.27,40.60
19.095934,-0.0083,-0.0215,1.0034,0.00,0.00,-0.06,-2.69,1.27,40.60
19.095934,-0.0083,-0.0215,1.0024,0.00,0.00,-0.06,-2.69,1.27,40.60
19.162648,-0.0078,-0.0220,1.0029,0.00,0.00,-0.06,-2.69,1.27,40.60
19.162648,-0.0078,-0.0215,1.0034,0.00,0.00,0.00,-2.69,1.27,40.60
19.162675,-0.0083,-0.0205,1.0029,0.06,0.00,-0.06,-2.69,1.27,40.60
19.162675,-0.0078,-0.0210,1.0034,0.00,0.00,-0.06,-2.69,1.27,40.61
19.187884,-0.0088,-0.0215,1.0039,0.00,0.00,-0.06,-2.69,1.27,40.61
19.187884,-0.0088,-0.0210,1.0029,-0.06,0.00,0.00,-2.69,1.27,40.61
19.248669,-0.0093,-0.0220,1.0029,-0.06,0.06,0.00,-2.69,1.27,40.61
19.248669,-0.0098,-0.0220,1.0029,0.00,0.00,0.00,-2.69,1.27,40.61
19.277944,-0.0093,-0.0215,1.0034,0.00,0.00,-0.06,-2.69,1.27,40.61
19.277944,-0.0103,-0.0210,1.0034,0.00,0.00,-0.06,-2.69,1.27,40.61
19.309260,-0.0103,-0.0215,1.0034,0.06,0.00,0.00,-2.69,1.27,40.61
19.309260,-0.0103,-0.0215,1.0044,0.06,0.00,-0.06,-2.69,1.27,40.61
19.368697,-0.0103,-0.0205,1.0024,0.00,0.00,-0.06,-2.69,1.27,40.61
19.368697,-0.0098,-0.0210,1.0044,0.00,0.00,-0.06,-2.69,1.27,40.61
19.397736,-0.0098,-0.0210,1.0044,0.00,0.00,0.00,-2.69,1.27,40.61
19.397736,-0.0093,-0.0215,1.0034,-0.06,-0.06,-0.06,-2.69,1.27,40.61
19.459009,-0.0088,-0.0215,1.0039,-0.06,-0.06,-0.06,-2.69,1.27,40.61
19.459009,-0.0083,-0.0215,1.0049,0.00,0.00,-0.12,-2.69,1.27,40.61
19.488037,-0.0078,-0.0210,1.0034,0.00,0.00,-0.06,-2.69,1.27,40.61
19.488037,-0.0073,-0.0220,1.0039,0.00,0.00,-0.06,-2.69,1.27,40.61
19.518812,-0.0063,-0.0220,1.0024,0.00,-0.06,-0.06,-2.69,1.27,40.62
19.518812,-0.0083,-0.0220,1.0034,0.00,0.00,-0.06,-2.69,1.27,40.62
19.582216,-0.0078,-0.0220,1.0039,0.00,0.00,-0.06,-2.69,1.27,40.62
19.582216,-0.0078,-0.0215,1.0044,0.00,0.00,0.00,-2.69,1.27,40.62
19.607986,-0.0078,-0.0215,1.0034,0.00,-0.06,-0.06,-2.69,1.27,40.62
19.607986,-0.0073,-0.0215,1.0034,0.00,0.00,0.00,-2.69,1.27,40.62
19.638959,-0.0083,-0.0215,1.0039,0.00,0.00,-0.06,-2.69,1.27,40.62
19.638959,-0.0083,-0.0210,1.0034,0.06,0.06,-0.06,-2.69,1.27,40.62
19.698686,-0.0088,-0.0210,1.0044,0.00,0.00,-0.06,-2.69,1.27,40.62
19.698686,-0.0093,-0.0215,1.0034,0.00,0.00,-0.06,-2.69,1.27,40.62
19.728028,-0.0088,-0.0215,1.0034,0.00,0.00,0.00,-2.69,1.27,40.62
19.728028,-0.0083,-0.0215,1.0044,0.00,0.00,-0.12,-2.69,1.27,40.62
19.758556,-0.0088,-0.0220,1.0029,0.00,0.06,-0.06,-2.69,1.27,40.62
19.758556,-0.0088,-0.0215,1.0034,0.00,0.00,-0.06,-2.69,1.27,40.62
19.818690,-0.0098,-0.0210,1.0039,0.00,0.00,0.00,-2.69,1.27,40.62
19.818690,-0.0098,-0.0215,1.0029,0.00,0.00,-0.12,-2.69,1.27,40.62
19.847808,-0.0103,-0.0215,1.0034,0.00,0.00,-0.06,-2.69,1.27,40.62
19.847808,-0.0103,-0.0215,1.0039,0.00,0.00,0.00,-2.69,1.27,40.62
19.878855,-0.0103,-0.0215,1.0029,0.00,0.00,-0.06,-2.69,1.27,40.63
19.878855,-0.0098,-0.0220,1.0029,0.00,0.00,-0.12,-2.69,1.27,40.63
19.938944,-0.0093,-0.0215,1.0029,0.00,0.00,-0.06,-2.69,1.27,40.63
19.938944,-0.0093,-0.0220,1.0039,0.00,0.00,-0.18,-2.69,1.27,40.63
19.968094,-0.0093,-0.0220,1.0039,0.00,0.00,-0.06,-2.69,1.27,40.63
19.968094,-0.0083,-0.0215,1.0029,0.00,0.00,-0.06,-2.69,1.27,40.63
19.998769,-0.0083,-0.0215,1.0029,0.00,0.00,-0.06,-2.69,1.27,40.63
19.998769,-0.0078,-0.0210,1.0039,0.06,0.00,0.00,-2.69,1.27,40.63
20.058083,-0.0078,-0.0215,1.0034,0.00,0.00,-0.06,-2.69,1.27,40.63
20.058083,-0.0078,-0.0210,1.0039,0.00,0.00,-0.06,-2.69,1.27,40.63
20.088291,-0.0078,-0.0215,1.0044,0.00,0.00,-0.06,-2.69,1.27,40.63
20.088291,-0.0088,-0.0220,1.0034,0.00,0.00,-0.06,-2.69,1.27,40.63
20.118060,-0.0078,-0.0215,1.0049,0.00,0.00,-0.06,-2.69,1.27,40.63
20.118060,-0.0078,-0.0210,1.0044,0.00,0.00,0.00,-2.69,1.27,40.63
20.178685,-0.0083,-0.0210,1.0039,0.00,0.00,-0.06,-2.69,1.27,40.63
20.178685,-0.0083,-0.0210,1.0039,0.00,0.00,-0.06,-2.69,1.27,40.63
20.208175,-0.0088,-0.0210,1.0039,0.00,0.00,-0.06,-2.69,1.27,40.63
20.208175,-0.0093,-0.0215,1.0039,0.00,0.00,-0.06,-2.69,1.27,40.63
20.256608,-0.0083,-0.0205,1.0044,0.00,0.06,-0.06,-2.69,1.27,40.64
20.256608,-0.0088,-0.0220,1.0034,-0.06,0.00,-0.06,-2.69,1.27,40.64
20.298911,-0.0088,-0.0205,1.0024,0.00,0.00,0.00,-2.69,1.27,40.64
20.298911,-0.0088,-0.0215,1.0034,0.00,0.00,-0.06,-2.69,1.27,40.64
20.328117,-0.0093,-0.0210,1.0039,0.00,0.00,0.00,-2.69,1.27,40.64
20.328117,-0.0088,-0.0210,1.0029,0.00,0.00,0.00,-2.69,1.27,40.64
20.358169,-0.0083,-0.0205,1.0034,0.00,0.00,0.00,-2.69,1.27,40.64
20.358169,-0.0088,-0.0215,1.0029,0.00,0.00,0.00,-2.69,1.27,40.64
20.419036,-0.0088,-0.0215,1.0029,0.00,0.00,-0.06,-2.69,1.27,40.64
20.419036,-0.0088,-0.0215,1.0029,0.00,0.00,-0.06,-2.69,1.27,40.64
20.448267,-0.0088,-0.0220,1.0034,-0.06,0.00,0.00,-2.69,1.27,40.64
20.448267,-0.0093,-0.0210,1.0049,-0.12,0.00,-0.06,-2.69,1.27,40.64
20.478862,-0.0088,-0.0220,1.0034,0.00,0.00,-0.06,-2.69,1.27,40.64
20.478862,-0.0093,-0.0220,1.0034,0.06,0.00,-0.06,-2.69,1.27,40.64
20.539182,-0.0083,-0.0210,1.0039,0.00,0.00,-0.06,-2.69,1.27,40.64
20.539182,-0.0083,-0.0215,1.0029,0.06,0.00,-0.06,-2.69,1.27,40.64
20.568229,-0.0083,-0.0220,1.0029,-0.06,0.00,-0.06,-2.69,1.27,40.64
20.568229,-0.0098,-0.0215,1.0029,0.00,0.00,-0.06,-2.69,1.27,40.64
20.598986,-0.0093,-0.0220,1.0024,0.00,0.00,-0.06,-2.69,1.27,40.65
20.598986,-0.0088,-0.0215,1.0034,0.00,0.00,0.00,-2.69,1.27,40.65
20.658187,-0.0093,-0.0220,1.0039,0.00,0.00,-0.06,-2.69,1.27,40.65
20.658187,-0.0078,-0.0210,1.0044,0.06,0.00,-0.06,-2.69,1.27,40.65
20.688916,-0.0088,-0.0205,1.0044,0.12,0.00,0.00,-2.69,1.27,40.65
20.688916,-0.0083,-0.0210,1.0029,0.06,0.00,0.00,-2.69,1.27,40.65
20.718092,-0.0088,-0.0210,1.0034,0.06,0.00,0.00,-2.69,1.27,40.65
20.718092,-0.0073,-0.0210,1.0034,0.00,0.00,-0.06,-2.69,1.27,40.65
20.778183,-0.0088,-0.0205,1.0034,-0.06,0.00,-0.06,-2.69,1.27,40.65
20.778183,-0.0093,-0.0210,1.0039,-0.06,0.00,0.00,-2.69,1.27,40.65
20.808892,-0.0093,-0.0215,1.0049,-0.06,0.00,-0.06,-2.69,1.27,40.65
20.808892,-0.0083,-0.0215,1.0044,0.00,0.00,-0.06,-2.69,1.27,40.65
20.868948,-0.0083,-0.0220,1.0044,0.00,0.00,-0.06,-2.69,1.27,40.65
20.868948,-0.0093,-0.0220,1.0044,0.00,0.00,0.00,-2.69,1.27,40.65
20.899402,-0.0083,-0.0220,1.0034,0.00,0.00,-0.06,-2.69,1.27,40.65
20.899402,-0.0088,-0.0215,1.0029,0.00,0.00,-0.06,-2.69,1.27,40.65
20.928537,-0.0093,-0.0220,1.0034,0.00,0.00,-0.06,-2.69,1.27,40.65
20.928537,-0.0088,-0.0210,1.0029,0.00,0.00,0.00,-2.69,1.27,40.65
20.988137,-0.0098,-0.0215,1.0024,0.00,0.00,-0.06,-2.69,1.27,40.65
20.988137,-0.0098,-0.0205,1.0024,0.00,0.00,0.00,-2.69,1.27,40.65
21.023765,-0.0098,-0.0205,1.0029,0.00,0.00,0.00,-2.69,1.27,40.66
21.023765,-0.0103,-0.0215,1.0034,0.00,0.00,-0.06,-2.69,1.27,40.66
21.048141,-0.0093,-0.0215,1.0029,0.00,0.00,0.00,-2.69,1.27,40.66
21.048141,-0.0093,-0.0215,1.0020,0.06,0.00,-0.06,-2.69,1.27,40.66
21.108967,-0.0088,-0.0220,1.0029,0.00,0.00,-0.06,-2.69,1.27,40.66
21.108967,-0.0088,-0.0210,1.0029,0.00,0.00,-0.06,-2.69,1.27,40.66
21.138481,-0.0083,-0.0215,1.0044,0.00,0.00,-0.06,-2.69,1.27,40.66
21.138481,-0.0088,-0.0215,1.0044,0.00,0.00,0.00,-2.69,1.27,40.66
21.168892,-0.0083,-0.0215,1.0034,0.00,0.00,-0.06,-2.69,1.27,40.66
21.168892,-0.0083,-0.0210,1.0044,0.06,0.00,0.00,-2.69,1.27,40.67
21.228958,-0.0083,-0.0210,1.0034,0.06,0.00,-0.06,-2.69,1.27,40.67
21.228958,-0.0078,-0.0215,1.0039,0.06,0.00,-0.12,-2.69,1.27,40.67
21.272785,-0.0083,-0.0210,1.0034,0.00,0.00,0.00,-2.69,1.27,40.67
21.272785,-0.0088,-0.0210,1.0044,0.00,0.00,-0.06,-2.69,1.27,40.67
21.288102,-0.0088,-0.0210,1.0039,-0.06,0.00,-0.06,-2.69,1.27,40.67
21.288102,-0.0073,-0.0215,1.0044,0.00,0.00,-0.06,-2.69,1.27,40.67
21.348986,-0.0078,-0.0215,1.0039,0.00,0.00,-0.06,-2.69,1.27,40.67
21.348986,-0.0078,-0.0215,1.0034,0.00,0.00,-0.12,-2.69,1.27,40.67
21.378252,-0.0093,-0.0215,1.0034,0.00,0.00,-0.06,-2.69,1.27,40.67
21.378252,-0.0083,-0.0215,1.0034,0.00,0.06,-0.06,-2.69,1.27,40.67
21.409007,-0.0098,-0.0205,1.0039,0.00,0.00,0.00,-2.69,1.27,40.67
21.409007,-0.0088,-0.0215,1.0029,0.00,0.00,0.00,-2.69,1.27,40.67
21.469039,-0.0083,-0.0215,1.0020,0.00,0.00,0.00,-2.69,1.27,40.67
21.469039,-0.0093,-0.0220,1.0020,0.00,0.00,-0.06,-2.69,1.27,40.67
21.498201,-0.0093,-0.0215,1.0029,0.00,0.00,-0.12,-2.69,1.27,40.67
21.498201,-0.0093,-0.0210,1.0034,0.00,0.00,-0.06,-2.69,1.27,40.67
21.528888,-0.0093,-0.0210,1.0034,0.00,0.00,0.00,-2.69,1.27,40.67
21.528888,-0.0083,-0.0220,1.0029,0.00,0.00,0.00,-2.69,1.27,40.67
21.588165,-0.0088,-0.0220,1.0029,0.06,0.00,-0.06,-2.69,1.27,40.67
21.588165,-0.0103,-0.0210,1.0034,0.12,0.00,0.00,-2.69,1.27,40.67
21.618935,-0.0088,-0.0210,1.0044,0.00,0.00,0.00,-2.69,1.27,40.68
21.618935,-0.0098,-0.0205,1.0034,-0.06,0.00,-0.06,-2.69,1.27,40.68
21.648145,-0.0083,-0.0220,1.0024,-0.12,0.00,-0.06,-2.69,1.27,40.68
21.648145,-0.0078,-0.0229,1.0029,-0.12,0.00,-0.06,-2.69,1.27,40.68
21.708933,-0.0083,-0.0215,1.0034,0.00,0.00,0.00,-2.69,1.27,40.68
21.708933,-0.0093,-0.0215,1.0039,0.00,0.00,-0.06,-2.69,1.27,40.68
21.739261,-0.0083,-0.0215,1.0039,0.00,0.00,-0.06,-2.69,1.27,40.68
21.739261,-0.0073,-0.0210,1.0049,0.06,0.00,0.00,-2.69,1.27,40.68
21.768232,-0.0078,-0.0215,1.0034,0.12,0.00,0.00,-2.69,1.27,40.68
21.768232,-0.0083,-0.0210,1.0039,0.12,0.00,-0.06,-2.69,1.27,40.68
21.828264,-0.0088,-0.0210,1.0034,0.00,0.00,0.00,-2.69,1.27,40.68
21.828264,-0.0083,-0.0215,1.0034,0.00,0.00,-0.12,-2.69,1.27,40.68
21.858957,-0.0083,-0.0215,1.0039,-0.06,-0.06,-0.06,-2.69,1.27,40.68
21.858957,-0.0088,-0.0210,1.0039,0.00,0.00,-0.06,-2.69,1.27,40.68
21.888289,-0.0078,-0.0215,1.0034,0.00,0.00,-0.06,-2.69,1.27,40.68
21.888289,-0.0088,-0.0225,1.0024,0.00,0.00,-0.06,-2.69,1.27,40.68
21.949083,-0.0093,-0.0220,1.0034,0.06,0.00,-0.12,-2.69,1.27,40.68
21.949083,-0.0093,-0.0215,1.0024,0.06,0.00,-0.06,-2.69,1.27,40.68
21.978162,-0.0093,-0.0210,1.0034,0.12,0.00,-0.06,-2.69,1.27,40.68
21.978162,-0.0098,-0.0215,1.0024,0.00,0.00,-0.12,-2.69,1.27,40.68
22.008936,-0.0093,-0.0210,1.0029,0.00,0.06,-0.12,-2.69,1.27,40.68
22.008936,-0.0088,-0.0215,1.0039,-0.06,0.00,-0.06,-2.69,1.27,40.69
22.069063,-0.0093,-0.0220,1.0039,-0.06,0.00,0.00,-2.69,1.27,40.69
22.069063,-0.0083,-0.0215,1.0034,0.00,0.00,-0.06,-2.69,1.27,40.69
22.098115,-0.0093,-0.0210,1.0034,0.00,0.00,0.00,-2.69,1.27,40.69
22.098115,-0.0088,-0.0215,1.0034,0.00,0.00,0.00,-2.69,1.27,40.69
22.128924,-0.0088,-0.0220,1.0034,0.00,0.00,-0.06,-2.69,1.27,40.69
22.128924,-0.0088,-0.0225,1.0034,0.06,0.00,0.00,-2.69,1.27,40.69
22.189324,-0.0088,-0.0210,1.0034,0.06,0.00,-0.06,-2.69,1.27,40.69
22.189324,-0.0088,-0.0205,1.0029,0.00,0.00,0.00,-2.69,1.27,40.69
22.218205,-0.0083,-0.0215,1.0029,0.00,-0.06,-0.06,-2.69,1.27,40.69
22.218205,-0.0088,-0.0215,1.0034,0.00,-0.06,-0.06,-2.69,1.27,40.69
22.278976,-0.0088,-0.0210,1.0039,0.00,0.00,-0.06,-2.69,1.27,40.69
22.278976,-0.0088,-0.0215,1.0034,0.00,0.00,-0.12,-2.69,1.27,40.69
22.322745,-0.0083,-0.0210,1.0024,0.00,0.00,-0.06,-2.69,1.27,40.69
22.322745,-0.0093,-0.0210,1.0034,-0.06,0.00,-0.06,-2.69,1.27,40.69
22.339096,-0.0083,-0.0210,1.0034,0.00,0.00,-0.06,-2.69,1.27,40.69
22.339096,-0.0078,-0.0215,1.0034,-0.06,0.00,0.00,-2.69,1.27,40.69
22.398951,-0.0073,-0.0220,1.0029,0.00,0.00,-0.06,-2.69,1.27,40.69
22.398951,-0.0083,-0.0220,1.0029,0.00,0.00,-0.06,-2.69,1.27,40.69
22.428102,-0.0078,-0.0220,1.0029,0.00,0.00,-0.06,-2.69,1.27,40.69
22.428102,-0.0093,-0.0215,1.0039,0.00,0.00,-0.06,-2.69,1.27,40.69
22.458962,-0.0083,-0.0210,1.0039,0.06,0.00,-0.06,-2.69,1.27,40.69
22.458962,-0.0083,-0.0210,1.0034,0.00,0.00,-0.12,-2.69,1.27,40.70
22.519009,-0.0093,-0.0215,1.0039,0.00,0.00,-0.12,-2.69,1.27,40.70
22.519009,-0.0083,-0.0215,1.0039,0.00,0.00,-0.06,-2.69,1.27,40.70
22.548216,-0.0088,-0.0205,1.0034,0.00,0.00,-0.06,-2.69,1.27,40.70
22.548216,-0.0093,-0.0215,1.0034,0.00,0.00,-0.12,-2.69,1.27,40.70
22.578916,-0.0083,-0.0220,1.0024,0.00,0.00,-0.12,-2.69,1.27,40.70
22.578916,-0.0093,-0.0210,1.0034,0.00,0.00,-0.12,-2.69,1.27,40.70
22.639236,-0.0093,-0.0210,1.0034,0.06,0.00,-0.06,-2.69,1.27,40.70
22.639236,-0.0093,-0.0205,1.0044,0.00,0.00,-0.06,-2.69,1.27,40.70
22.668197,-0.0093,-0.0225,1.0044,0.00,0.00,-0.06,-2.69,1.27,40.70
22.668197,-0.0093,-0.0210,1.0029,0.00,0.00,-0.06,-2.69,1.27,40.70
22.698889,-0.0093,-0.0215,1.0034,0.00,-0.06,-0.06,-2.69,1.27,40.70
22.698889,-0.0098,-0.0210,1.0034,0.00,0.00,0.00,-2.69,1.27,40.70
22.758969,-0.0088,-0.0220,1.0034,0.00,0.00,0.00,-2.69,1.27,40.70
22.758969,-0.0083,-0.0210,1.0034,0.00,0.00,0.00,-2.69,1.27,40.70
22.788204,-0.0083,-0.0210,1.0044,0.00,0.00,-0.06,-2.69,1.27,40.70
22.788204,-0.0078,-0.0215,1.0034,0.00,0.00,0.00,-2.69,1.27,40.70
22.819288,-0.0083,-0.0215,1.0039,0.00,0.00,-0.12,-2.69,1.27,40.70
22.819288,-0.0083,-0.0210,1.0049,0.06,-0.06,-0.06,-2.69,1.27,40.70
22.880494,-0.0083,-0.0215,1.0034,0.00,0.00,-0.06,-2.69,1.27,40.70
22.880494,-0.0083,-0.0215,1.0039,0.06,0.00,-0.06,-2.69,1.27,40.70
22.908765,-0.0083,-0.0205,1.0039,0.00,0.00,-0.18,-2.69,1.27,40.70
22.908765,-0.0078,-0.0210,1.0024,0.00,0.00,-0.06,-2.69,1.27,40.71
22.939285,-0.0078,-0.0215,1.0034,0.00,0.00,-0.06,-2.69,1.27,40.71
22.939285,-0.0078,-0.0210,1.0034,0.00,0.06,-0.06,-2.69,1.27,40.71
22.998985,-0.0093,-0.0210,1.0039,0.00,0.00,-0.06,-2.69,1.27,40.71
22.998985,-0.0083,-0.0205,1.0039,0.00,0.00,-0.06,-2.69,1.27,40.71
23.028222,-0.0088,-0.0210,1.0034,0.00,0.00,-0.06,-2.69,1.27,40.71
23.028222,-0.0088,-0.0210,1.0039,0.00,0.00,-0.06,-2.69,1.27,40.71
23.059060,-0.0088,-0.0215,1.0034,0.00,0.00,-0.12,-2.69,1.27,40.71
23.059060,-0.0083,-0.0215,1.0024,0.00,0.00,-0.12,-2.69,1.27,40.71
23.118950,-0.0088,-0.0215,1.0039,0.00,0.00,-0.06,-2.69,1.27,40.71
23.118950,-0.0088,-0.0210,1.0034,0.00,0.00,0.00,-2.69,1.27,40.71
23.148217,-0.0088,-0.0215,1.0034,0.00,0.00,-0.06,-2.69,1.27,40.72
23.148217,-0.0088,-0.0215,1.0044,0.00,0.00,-0.06,-2.69,1.27,40.72
23.178957,-0.0088,-0.0215,1.0039,0.00,0.00,-0.06,-2.69,1.27,40.72
23.178957,-0.0098,-0.0210,1.0034,0.00,0.00,-0.06,-2.69,1.27,40.72
23.238509,-0.0098,-0.0215,1.0044,0.00,0.00,-0.06,-2.69,1.27,40.72
23.238509,-0.0093,-0.0215,1.0044,0.00,0.00,-0.06,-2.69,1.27,40.72
23.269423,-0.0088,-0.0210,1.0029,0.00,0.00,-0.12,-2.69,1.27,40.72
23.269423,-0.0093,-0.0220,1.0034,0.06,0.00,-0.06,-2.69,1.27,40.72
23.298201,-0.0088,-0.0215,1.0034,0.00,0.00,-0.06,-2.69,1.27,40.72
23.298201,-0.0093,-0.0220,1.0024,0.00,0.00,-0.06,-2.69,1.27,40.72
23.358875,-0.0093,-0.0210,1.0034,0.00,0.00,-0.06,-2.69,1.27,40.72
23.358875,-0.0088,-0.0200,1.0029,0.00,0.00,-0.06,-2.69,1.27,40.72
23.388205,-0.0083,-0.0215,1.0039,0.00,0.00,-0.06,-2.69,1.27,40.72
23.388205,-0.0073,-0.0210,1.0049,0.00,0.00,-0.12,-2.69,1.27,40.72
23.418837,-0.0083,-0.0215,1.0044,0.00,0.00,-0.06,-2.69,1.27,40.72
23.418837,-0.0083,-0.0215,1.0034,0.00,0.00,-0.06,-2.69,1.27,40.72
23.479019,-0.0083,-0.0215,1.0039,0.00,0.00,-0.06,-2.69,1.27,40.72
23.479019,-0.0083,-0.0220,1.0024,0.00,0.00,-0.06,-2.69,1.27,40.72
23.508160,-0.0088,-0.0205,1.0029,0.00,0.00,-0.06,-2.69,1.27,40.72
23.508160,-0.0088,-0.0215,1.0029,0.00,0.00,0.00,-2.69,1.27,40.72
23.538431,-0.0088,-0.0210,1.0029,0.00,0.00,-0.06,-2.69,1.27,40.72
23.538431,-0.0078,-0.0225,1.0029,0.00,0.00,0.00,-2.69,1.27,40.72
23.599030,-0.0088,-0.0210,1.0029,0.00,0.00,-0.12,-2.69,1.27,40.72
23.599030,-0.0083,-0.0215,1.0034,0.00,0.00,-0.12,-2.69,1.27,40.72
23.628216,-0.0098,-0.0220,1.0039,0.00,0.00,-0.06,-2.69,1.27,40.73
23.628216,-0.0088,-0.0215,1.0024,0.00,0.00,0.00,-2.69,1.27,40.73
23.692052,-0.0083,-0.0205,1.0029,0.00,0.00,-0.06,-2.69,1.27,40.73
23.692052,-0.0083,-0.0210,1.0034,0.00,0.00,-0.06,-2.69,1.27,40.73
23.718949,-0.0088,-0.0210,1.0034,0.00,0.00,-0.06,-2.69,1.27,40.73
23.718949,-0.0083,-0.0210,1.0029,0.00,0.00,-0.12,-2.69,1.27,40.73
23.790141,-0.0088,-0.0210,1.0039,0.00,0.00,-0.06,-2.69,1.27,40.73
23.790141,-0.0088,-0.0205,1.0039,0.00,0.06,-0.12,-2.69,1.27,40.73
23.821084,-0.0088,-0.0215,1.0039,0.00,0.00,-0.06,-2.69,1.27,40.73
23.821084,-0.0093,-0.0220,1.0039,-0.06,0.00,-0.06,-2.69,1.27,40.73
23.838322,-0.0088,-0.0210,1.0039,0.00,0.00,-0.06,-2.69,1.27,40.73
23.838322,-0.0093,-0.0205,1.0029,0.00,0.00,-0.12,-2.69,1.27,40.73
23.868817,-0.0083,-0.0215,1.0024,0.00,0.00,-0.06,-2.69,1.27,40.73
23.868817,-0.0093,-0.0215,1.0034,0.00,0.00,-0.06,-2.69,1.27,40.73
23.928869,-0.0093,-0.0215,1.0024,0.00,0.00,-0.06,-2.69,1.27,40.73
23.928869,-0.0093,-0.0215,1.0039,0.00,0.00,-0.06,-2.69,1.27,40.73
23.958101,-0.0088,-0.0210,1.0039,0.00,0.00,-0.06,-2.69,1.27,40.73
23.958101,-0.0078,-0.0200,1.0039,0.00,0.00,-0.06,-2.69,1.27,40.73
23.988878,-0.0083,-0.0210,1.0044,0.00,0.00,-0.06,-2.69,1.27,40.73
23.988878,-0.0083,-0.0215,1.0029,0.06,0.00,-0.06,-2.69,1.27,40.73
24.048019,-0.0088,-0.0215,1.0029,0.00,0.00,0.00,-2.69,1.27,40.73
24.048019,-0.0083,-0.0215,1.0034,0.00,0.00,-0.06,-2.69,1.27,40.73
24.078995,-0.0083,-0.0210,1.0029,0.00,0.06,-0.06,-2.69,1.27,40.73
24.078995,-0.0088,-0.0220,1.0020,0.00,0.00,-0.06,-2.69,1.27,40.73
24.108302,-0.0083,-0.0215,1.0024,0.00,0.00,-0.06,-2.69,1.27,40.74
24.108302,-0.0078,-0.0215,1.0034,0.00,0.00,-0.12,-2.69,1.27,40.74
24.171698,-0.0093,-0.0210,1.0029,-0.06,-0.06,0.00,-2.69,1.27,40.74
24.171698,-0.0083,-0.0210,1.0034,0.00,0.00,-0.06,-2.69,1.27,40.74
24.198739,-0.0088,-0.0210,1.0039,0.00,0.00,-0.06,-2.69,1.27,40.74
24.198739,-0.0083,-0.0210,1.0029,0.00,0.00,-0.12,-2.69,1.27,40.74
24.228178,-0.0098,-0.0220,1.0029,0.00,0.00,-0.12,-2.69,1.27,40.74
24.228178,-0.0088,-0.0220,1.0034,-0.06,0.00,-0.06,-2.69,1.27,40.74
24.288995,-0.0083,-0.0220,1.0034,-0.06,0.00,-0.06,-2.69,1.27,40.74
24.288995,-0.0093,-0.0215,1.0034,0.00,0.00,-0.06,-2.69,1.27,40.74
24.318276,-0.0083,-0.0215,1.0029,0.00,0.00,-0.06,-2.69,1.27,40.74
24.318276,-0.0083,-0.0215,1.0034,0.00,0.00,-0.06,-2.69,1.27,40.74
24.363927,-0.0083,-0.0215,1.0034,0.00,0.00,-0.06,-2.69,1.27,40.74
24.363927,-0.0093,-0.0210,1.0039,0.00,0.00,-0.06,-2.69,1.27,40.74
24.409019,-0.0088,-0.0210,1.0034,0.00,0.00,-0.06,-2.69,1.27,40.74
24.409019,-0.0088,-0.0220,1.0034,0.00,0.00,-0.06,-2.69,1.27,40.74
24.438519,-0.0083,-0.0215,1.0039,0.00,0.00,-0.06,-2.69,1.27,40.74
24.438519,-0.0088,-0.0220,1.0029,0.00,0.00,-0.06,-2.69,1.27,40.74
24.468918,-0.0093,-0.0210,1.0034,0.00,0.00,-0.06,-2.69,1.27,40.74
24.468918,-0.0078,-0.0210,1.0029,0.00,0.00,-0.12,-2.69,1.27,40.74
24.529074,-0.0088,-0.0210,1.0034,0.00,0.00,-0.06,-2.69,1.27,40.74
24.529074,-0.0083,-0.0215,1.0039,0.00,0.00,0.00,-2.69,1.27,40.74
24.558247,-0.0083,-0.0215,1.0034,0.00,0.00,-0.12,-2.69,1.27,40.74
24.558247,-0.0083,-0.0215,1.0029,0.00,0.00,-0.06,-2.69,1.27,40.74
24.598540,-0.0083,-0.0215,1.0039,0.00,0.00,0.00,-2.69,1.27,40.74
24.598540,-0.0078,-0.0220,1.0034,0.00,0.00,-0.06,-2.69,1.27,40.74
24.648358,-0.0088,-0.0210,1.0029,0.00,0.00,-0.06,-2.69,1.27,40.74
24.648358,-0.0088,-0.0210,1.0034,0.00,-0.06,-0.06,-2.69,1.27,40.75
24.678271,-0.0093,-0.0215,1.0044,0.00,0.00,-0.12,-2.69,1.27,40.75
24.678271,-0.0088,-0.0210,1.0039,-0.06,0.00,-0.12,-2.69,1.27,40.75
24.709075,-0.0088,-0.0215,1.0039,0.00,0.00,0.00,-2.69,1.27,40.75
24.709075,-0.0088,-0.0210,1.0034,0.00,0.00,-0.06,-2.69,1.27,40.75
24.801124,-0.0088,-0.0215,1.0029,0.00,0.00,-0.06,-2.69,1.27,40.75
24.801124,-0.0083,-0.0220,1.0034,0.00,0.00,0.00,-2.69,1.27,40.75
24.801288,-0.0083,-0.0215,1.0034,0.00,0.00,-0.12,-2.69,1.27,40.75
24.801288,-0.0088,-0.0210,1.0034,0.00,0.00,-0.06,-2.69,1.27,40.75
24.831007,-0.0088,-0.0225,1.0034,0.00,0.00,0.00,-2.69,1.27,40.75
24.831007,-0.0088,-0.0215,1.0034,-0.06,0.00,-0.06,-2.69,1.27,40.75
24.888874,-0.0078,-0.0215,1.0039,0.00,0.00,-0.06,-2.69,1.27,40.75
24.888874,-0.0083,-0.0215,1.0039,0.00,0.00,0.00,-2.69,1.27,40.75
24.922723,-0.0088,-0.0210,1.0029,0.00,0.00,-0.12,-2.69,1.27,40.75
24.922723,-0.0083,-0.0205,1.0024,0.00,0.00,-0.06,-2.69,1.27,40.75
24.948938,-0.0083,-0.0215,1.0044,0.00,0.00,-0.06,-2.69,1.27,40.75
24.948938,-0.0078,-0.0215,1.0029,0.00,0.00,-0.12,-2.69,1.27,40.75
25.009076,-0.0083,-0.0215,1.0044,0.00,0.00,-0.06,-2.69,1.27,40.75
25.009076,-0.0088,-0.0210,1.0034,0.00,0.00,0.00,-2.69,1.27,40.75
25.039459,-0.0078,-0.0205,1.0044,0.00,0.00,0.00,-2.69,1.27,40.75
25.039459,-0.0078,-0.0215,1.0029,0.00,0.00,-0.12,-2.69,1.27,40.75
25.099396,-0.0078,-0.0210,1.0034,0.00,0.00,-0.06,-2.69,1.27,40.75
25.099396,-0.0088,-0.0225,1.0034,0.06,0.00,-0.06,-2.69,1.27,40.75
25.128282,-0.0088,-0.0215,1.0029,0.00,0.00,-0.06,-2.69,1.27,40.75
25.128282,-0.0093,-0.0215,1.0034,0.00,0.00,-0.06,-2.69,1.27,40.75
25.158992,-0.0083,-0.0220,1.0034,0.00,0.00,-0.06,-2.69,1.27,40.75
25.158992,-0.0098,-0.0210,1.0034,0.00,0.00,0.00,-2.69,1.27,40.75
25.219092,-0.0083,-0.0220,1.0029,0.00,0.00,0.00,-2.69,1.27,40.76
25.219092,-0.0083,-0.0220,1.0034,0.00,0.00,0.00,-2.69,1.27,40.76
25.248086,-0.0088,-0.0215,1.0029,0.00,0.00,-0.06,-2.69,1.27,40.76
25.248086,-0.0088,-0.0215,1.0029,0.00,0.00,0.00,-2.69,1.27,40.76
25.278303,-0.0088,-0.0205,1.0034,0.00,0.00,-0.06,-2.69,1.27,40.76
25.278303,-0.0088,-0.0215,1.0044,0.00,0.00,0.00,-2.69,1.27,40.76
25.340245,-0.0078,-0.0210,1.0034,0.00,0.00,-0.06,-2.69,1.27,40.76
25.340245,-0.0078,-0.0215,1.0024,0.00,0.00,-0.06,-2.69,1.27,40.76
25.377650,-0.0083,-0.0210,1.0029,-0.06,0.00,-0.12,-2.69,1.27,40.76
25.377650,-0.0093,-0.0210,1.0039,0.00,0.00,0.00,-2.69,1.27,40.76
25.398192,-0.0093,-0.0205,1.0024,0.00,0.00,-0.06,-2.69,1.27,40.76
25.398192,-0.0093,-0.0205,1.0020,0.00,0.00,-0.06,-2.69,1.27,40.76
25.461733,-0.0088,-0.0215,1.0034,0.00,0.00,-0.06,-2.69,1.27,40.76
25.461733,-0.0088,-0.0215,1.0029,0.00,0.00,-0.12,-2.69,1.27,40.76
25.488878,-0.0083,-0.0210,1.0029,0.00,0.00,-0.06,-2.69,1.27,40.76
25.488878,-0.0083,-0.0215,1.0029,0.00,0.00,-0.06,-2.69,1.27,40.76
25.519068,-0.0078,-0.0220,1.0039,0.00,0.00,-0.06,-2.69,1.27,40.76
25.519068,-0.0088,-0.0215,1.0029,0.00,0.00,-0.12,-2.69,1.27,40.76
25.579166,-0.0088,-0.0215,1.0039,0.00,0.00,-0.06,-2.69,1.27,40.76
25.579166,-0.0088,-0.0220,1.0024,0.00,0.00,-0.06,-2.69,1.27,40.76
25.609231,-0.0073,-0.0210,1.0029,0.00,0.00,-0.06,-2.69,1.27,40.76
25.609231,-0.0088,-0.0210,1.0044,0.00,0.00,-0.06,-2.69,1.27,40.76
25.638368,-0.0093,-0.0205,1.0034,0.00,0.00,-0.06,-2.69,1.27,40.76
25.638368,-0.0088,-0.0210,1.0034,0.00,0.00,-0.06,-2.69,1.27,40.76
25.698284,-0.0083,-0.0220,1.0034,0.00,-0.06,-0.12,-2.69,1.27,40.76
25.698284,-0.0088,-0.0215,1.0029,0.06,0.00,-0.06,-2.69,1.27,40.76
25.728390,-0.0083,-0.0215,1.0024,0.00,0.00,0.00,-2.69,1.27,40.76
25.728390,-0.0078,-0.0220,1.0034,0.00,0.00,-0.06,-2.69,1.27,40.76
25.759127,-0.0078,-0.0225,1.0024,0.00,0.00,-0.06,-2.69,1.27,40.77
25.759127,-0.0083,-0.0210,1.0029,0.00,0.00,-0.06,-2.69,1.27,40.77
25.819140,-0.0083,-0.0210,1.0029,0.00,0.00,-0.06,-2.69,1.27,40.77
25.819140,-0.0088,-0.0215,1.0029,0.00,0.06,-0.12,-2.69,1.27,40.77
25.848239,-0.0083,-0.0215,1.0039,0.00,0.06,-0.06,-2.69,1.27,40.77
25.848239,-0.0093,-0.0205,1.0039,0.00,0.00,-0.06,-2.69,1.27,40.77
25.879046,-0.0088,-0.0215,1.0039,0.00,0.00,-0.06,-2.69,1.27,40.77
25.879046,-0.0088,-0.0215,1.0029,0.06,0.00,-0.06,-2.69,1.27,40.77
25.939401,-0.0088,-0.0215,1.0029,0.00,0.00,-0.06,-2.69,1.27,40.77
25.939401,-0.0083,-0.0210,1.0039,0.00,0.00,-0.06,-2.69,1.27,40.77
25.970932,-0.0088,-0.0210,1.0039,0.00,0.00,-0.06,-2.69,1.27,40.77
25.970932,-0.0093,-0.0215,1.0029,0.00,0.00,-0.12,-2.69,1.27,40.77
26.007980,-0.0093,-0.0210,1.0029,0.00,0.00,-0.12,-2.69,1.27,40.77
26.007980,-0.0088,-0.0205,1.0034,0.00,0.00,-0.06,-2.69,1.27,40.77
26.059118,-0.0088,-0.0210,1.0034,0.00,0.00,-0.06,-2.69,1.27,40.77
26.059118,-0.0093,-0.0215,1.0029,0.00,0.00,0.00,-2.69,1.27,40.78
26.088398,-0.0078,-0.0205,1.0034,0.00,0.00,-0.06,-2.69,1.27,40.78
26.088398,-0.0088,-0.0220,1.0034,0.00,0.00,0.00,-2.69,1.27,40.78
26.122957,-0.0083,-0.0215,1.0024,0.00,0.00,-0.06,-2.69,1.27,40.78
26.122957,-0.0093,-0.0220,1.0034,0.00,0.00,-0.12,-2.69,1.27,40.78
26.179022,-0.0088,-0.0215,1.0034,0.00,0.06,-0.12,-2.69,1.27,40.78
26.179022,-0.0083,-0.0215,1.0039,0.00,0.00,0.00,-2.69,1.27,40.78
26.208288,-0.0083,-0.0215,1.0029,0.06,0.00,-0.12,-2.69,1.27,40.78
26.208288,-0.0093,-0.0210,1.0029,0.06,0.00,-0.12,-2.69,1.27,40.78
26.250208,-0.0083,-0.0210,1.0039,0.06,0.00,0.00,-2.69,1.27,40.78
26.250208,-0.0073,-0.0205,1.0039,0.00,0.00,-0.12,-2.69,1.27,40.78
26.298561,-0.0083,-0.0215,1.0034,0.06,0.00,-0.06,-2.69,1.27,40.78
26.298561,-0.0083,-0.0205,1.0034,0.00,0.00,-0.12,-2.69,1.27,40.78
26.329090,-0.0088,-0.0210,1.0029,0.00,0.00,-0.12,-2.69,1.27,40.78
26.329090,-0.0078,-0.0215,1.0029,-0.06,0.00,0.00,-2.69,1.27,40.78
26.358363,-0.0088,-0.0210,1.0034,0.00,0.00,-0.06,-2.69,1.27,40.78
26.358363,-0.0088,-0.0210,1.0024,0.00,0.00,-0.06,-2.69,1.27,40.78
26.419067,-0.0088,-0.0215,1.0029,0.00,0.00,-0.06,-2.69,1.27,40.78
26.419067,-0.0083,-0.0220,1.0029,0.00,0.00,-0.06,-2.69,1.27,40.78
26.448154,-0.0083,-0.0220,1.0034,0.00,0.00,-0.06,-2.69,1.27,40.78
26.448154,-0.0088,-0.0220,1.0024,0.00,0.06,0.00,-2.69,1.27,40.78
26.508133,-0.0088,-0.0215,1.0034,0.00,0.00,-0.06,-2.69,1.27,40.78
26.508133,-0.0083,-0.0205,1.0029,0.00,0.00,-0.06,-2.69,1.27,40.78
26.539648,-0.0093,-0.0215,1.0034,0.00,0.00,-0.06,-2.69,1.27,40.78
26.539648,-0.0088,-0.0215,1.0034,0.00,-0.06,-0.06,-2.69,1.27,40.78
26.568271,-0.0093,-0.0210,1.0024,0.00,0.00,-0.06,-2.69,1.27,40.78
26.568271,-0.0083,-0.0210,1.0029,0.00,0.00,0.00,-2.69,1.27,40.78
26.629119,-0.0088,-0.0210,1.0039,0.00,0.00,0.00,-2.69,1.27,40.78
26.629119,-0.0088,-0.0215,1.0034,0.00,0.00,-0.06,-2.69,1.27,40.78
26.658225,-0.0083,-0.0215,1.0024,0.00,0.00,-0.06,-2.69,1.27,40.78
26.658225,-0.0083,-0.0215,1.0029,0.00,0.00,-0.06,-2.69,1.27,40.79
26.689284,-0.0088,-0.0215,1.0029,0.00,0.00,-0.06,-2.69,1.27,40.79
26.689284,-0.0093,-0.0215,1.0029,0.00,0.00,-0.06,-2.69,1.27,40.79
26.749251,-0.0083,-0.0210,1.0024,0.00,0.00,-0.06,-2.69,1.27,40.79
26.749251,-0.0093,-0.0210,1.0039,0.00,0.00,-0.06,-2.69,1.27,40.79
26.779039,-0.0083,-0.0215,1.0034,0.00,0.00,0.00,-2.69,1.27,40.79
26.779039,-0.0088,-0.0215,1.0034,0.00,0.00,-0.06,-2.69,1.27,40.79
26.808310,-0.0088,-0.0215,1.0034,0.00,0.00,-0.12,-2.69,1.27,40.79
26.808310,-0.0088,-0.0215,1.0034,0.00,0.00,-0.06,-2.69,1.27,40.79
26.870956,-0.0093,-0.0215,1.0034,0.00,0.00,0.00,-2.69,1.27,40.79
26.870956,-0.0088,-0.0215,1.0029,0.00,0.00,0.00,-2.69,1.27,40.79
26.898247,-0.0088,-0.0215,1.0024,0.00,0.00,-0.06,-2.69,1.27,40.79
26.898247,-0.0078,-0.0210,1.0029,0.00,0.00,-0.06,-2.69,1.27,40.79
26.929124,-0.0078,-0.0210,1.0039,0.00,0.00,-0.06,-2.69,1.27,40.79
26.929124,-0.0088,-0.0210,1.0034,0.00,0.00,-0.06,-2.69,1.27,40.79
26.989191,-0.0093,-0.0215,1.0024,0.00,0.00,-0.06,-2.69,1.27,40.79
26.989191,-0.0093,-0.0210,1.0034,0.00,0.00,-0.06,-2.69,1.27,40.79
27.022669,-0.0093,-0.0210,1.0024,0.00,0.00,-0.06,-2.69,1.27,40.79
27.022669,-0.0088,-0.0215,1.0034,0.00,0.00,0.00,-2.69,1.27,40.79
27.048371,-0.0088,-0.0215,1.0024,0.00,0.00,0.00,-2.69,1.27,40.79
27.048371,-0.0088,-0.0205,1.0024,0.00,0.00,-0.06,-2.69,1.27,40.79
27.109160,-0.0083,-0.0220,1.0034,0.00,0.00,-0.06,-2.69,1.27,40.79
27.109160,-0.0088,-0.0210,1.0029,0.00,0.00,-0.12,-2.69,1.27,40.79
27.139309,-0.0083,-0.0220,1.0034,0.00,0.00,0.00,-2.69,1.27,40.79
27.139309,-0.0083,-0.0215,1.0034,0.00,0.00,-0.06,-2.69,1.27,40.79
27.168815,-0.0083,-0.0210,1.0039,0.00,0.00,-0.06,-2.69,1.27,40.79
27.168815,-0.0083,-0.0215,1.0044,0.00,0.00,-0.06,-2.69,1.27,40.79
27.230159,-0.0083,-0.0215,1.0044,0.00,0.00,-0.06,-2.69,1.27,40.79
27.230159,-0.0083,-0.0220,1.0039,0.00,0.00,0.00,-2.69,1.27,40.79
27.259164,-0.0088,-0.0215,1.0029,0.00,0.00,-0.06,-2.69,1.27,40.79
27.259164,-0.0093,-0.0215,1.0034,0.00,0.00,-0.06,-2.69,1.27,40.79
27.288227,-0.0083,-0.0215,1.0039,0.00,0.00,-0.06,-2.69,1.27,40.79
27.288227,-0.0093,-0.0210,1.0039,0.06,0.00,-0.06,-2.69,1.27,40.80
27.349243,-0.0088,-0.0215,1.0029,0.00,0.00,-0.06,-2.69,1.27,40.80
27.349243,-0.0088,-0.0215,1.0024,0.00,0.00,0.00,-2.69,1.27,40.80
27.378345,-0.0088,-0.0210,1.0034,0.00,0.00,-0.06,-2.69,1.27,40.80
27.378345,-0.0078,-0.0210,1.0039,0.00,0.00,-0.06,-2.69,1.27,40.80
27.424670,-0.0093,-0.0210,1.0034,0.00,0.00,-0.06,-2.69,1.27,40.80
27.424670,-0.0083,-0.0215,1.0034,0.00,0.00,-0.06,-2.69,1.27,40.80
27.469074,-0.0083,-0.0220,1.0039,0.00,0.06,-0.12,-2.69,1.27,40.80
27.469074,-0.0083,-0.0215,1.0029,0.00,0.00,-0.06,-2.69,1.27,40.80
27.498209,-0.0088,-0.0215,1.0039,0.00,0.00,-0.12,-2.69,1.27,40.80
27.498209,-0.0083,-0.0215,1.0034,0.00,0.00,-0.06,-2.69,1.27,40.80
27.528331,-0.0088,-0.0205,1.0039,0.00,0.00,-0.06,-2.69,1.27,40.80
27.528331,-0.0088,-0.0215,1.0039,0.00,0.00,-0.12,-2.69,1.27,40.80
27.589176,-0.0088,-0.0215,1.0034,0.00,0.00,-0.12,-2.69,1.27,40.80
27.589176,-0.0088,-0.0215,1.0039,0.00,0.00,-0.06,-2.69,1.27,40.80
27.618539,-0.0088,-0.0210,1.0039,0.00,0.00,-0.06,-2.69,1.27,40.80
27.618539,-0.0088,-0.0210,1.0034,0.00,0.00,0.00,-2.69,1.27,40.80
27.649126,-0.0093,-0.0215,1.0039,0.00,0.00,-0.06,-2.69,1.27,40.80
27.649126,-0.0088,-0.0220,1.0029,0.00,0.00,-0.06,-2.69,1.27,40.80
27.709165,-0.0083,-0.0215,1.0039,0.00,0.00,-0.06,-2.69,1.27,40.80
27.709165,-0.0088,-0.0210,1.0034,0.00,0.00,0.00,-2.69,1.27,40.80
27.741369,-0.0088,-0.0210,1.0034,0.00,0.00,-0.06,-2.69,1.27,40.80
27.741369,-0.0088,-0.0220,1.0034,0.00,0.00,-0.06,-2.69,1.27,40.80
27.771092,-0.0083,-0.0215,1.0039,0.00,0.00,0.00,-2.69,1.27,40.80
27.771092,-0.0083,-0.0220,1.0039,0.00,0.00,-0.12,-2.69,1.27,40.80
27.829143,-0.0093,-0.0215,1.0034,0.00,0.00,-0.06,-2.69,1.27,40.80
27.829143,-0.0088,-0.0215,1.0034,0.00,0.00,0.00,-2.69,1.27,40.80
27.858465,-0.0083,-0.0215,1.0034,0.00,0.00,-0.06,-2.69,1.27,40.80
27.858465,-0.0088,-0.0215,1.0029,0.00,0.00,-0.06,-2.69,1.27,40.80
27.919119,-0.0083,-0.0220,1.0029,0.06,0.00,-0.06,-2.69,1.27,40.80
27.919119,-0.0088,-0.0220,1.0039,0.00,0.00,-0.06,-2.69,1.27,40.80
27.953399,-0.0093,-0.0215,1.0049,0.00,0.00,-0.06,-2.69,1.27,40.80
27.953399,-0.0083,-0.0210,1.0039,0.00,0.00,0.00,-2.69,1.27,40.80
27.978968,-0.0088,-0.0210,1.0029,0.00,0.00,-0.06,-2.69,1.27,40.81
27.978968,-0.0083,-0.0205,1.0039,0.00,0.00,0.00,-2.69,1.27,40.81
28.038775,-0.0073,-0.0215,1.0039,0.00,0.00,0.00,-2.69,1.27,40.81
28.038775,-0.0088,-0.0215,1.0029,0.00,0.00,0.00,-2.69,1.27,40.81
28.071092,-0.0088,-0.0215,1.0039,0.00,0.00,-0.06,-2.69,1.27,40.81
28.071092,-0.0088,-0.0215,1.0034,0.00,0.00,0.00,-2.69,1.27,40.81
28.101107,-0.0088,-0.0215,1.0039,0.00,0.00,-0.06,-2.69,1.27,40.81
28.101107,-0.0093,-0.0215,1.0039,0.00,0.00,-0.06,-2.69,1.27,40.81
28.158803,-0.0093,-0.0220,1.0029,0.00,0.00,-0.06,-2.69,1.27,40.81
28.158803,-0.0088,-0.0220,1.0034,0.00,0.00,-0.06,-2.69,1.27,40.81
28.189141,-0.0088,-0.0215,1.0034,0.00,0.00,-0.06,-2.69,1.27,40.81
28.189141,-0.0083,-0.0215,1.0034,0.06,0.00,0.00,-2.69,1.27,40.81
28.218365,-0.0088,-0.0220,1.0039,0.00,0.00,-0.06,-2.69,1.27,40.81
28.218365,-0.0088,-0.0215,1.0034,0.00,0.00,-0.06,-2.69,1.27,40.81
28.279171,-0.0078,-0.0205,1.0034,0.00,0.00,-0.12,-2.69,1.27,40.81
28.279171,-0.0083,-0.0210,1.0034,0.00,-0.06,-0.06,-2.69,1.27,40.81
28.308361,-0.0088,-0.0210,1.0034,0.00,0.00,-0.12,-2.69,1.27,40.81
28.308361,-0.0088,-0.0210,1.0034,0.00,0.00,0.00,-2.69,1.27,40.81
28.339462,-0.0083,-0.0215,1.0034,0.00,0.00,-0.12,-2.69,1.27,40.81
28.339462,-0.0088,-0.0215,1.0039,0.00,0.00,-0.06,-2.69,1.27,40.81
28.400834,-0.0088,-0.0220,1.0034,0.06,0.00,-0.06,-2.69,1.27,40.81
28.400834,-0.0093,-0.0210,1.0039,0.00,0.00,-0.06,-2.69,1.27,40.81
28.433582,-0.0098,-0.0215,1.0039,0.00,0.00,-0.06,-2.69,1.27,40.81
28.433582,-0.0083,-0.0210,1.0029,0.00,0.00,-0.06,-2.69,1.27,40.81
28.459098,-0.0088,-0.0215,1.0034,-0.12,0.00,-0.06,-2.69,1.27,40.81
28.459098,-0.0093,-0.0215,1.0029,0.00,0.00,-0.12,-2.69,1.27,40.81
28.519167,-0.0078,-0.0215,1.0034,-0.06,0.00,-0.06,-2.69,1.27,40.81
28.519167,-0.0088,-0.0215,1.0034,0.00,0.00,-0.06,-2.69,1.27,40.81
28.548318,-0.0093,-0.0215,1.0029,0.00,0.00,-0.06,-2.69,1.27,40.81
28.548318,-0.0083,-0.0210,1.0029,0.00,0.00,-0.12,-2.69,1.27,40.81
28.579515,-0.0098,-0.0210,1.0034,0.00,0.00,-0.12,-2.69,1.27,40.81
28.579515,-0.0083,-0.0210,1.0034,0.06,0.00,-0.06,-2.69,1.27,40.81
28.674914,-0.0088,-0.0215,1.0034,0.00,0.00,-0.06,-2.69,1.27,40.81
28.674914,-0.0093,-0.0215,1.0044,-0.06,0.00,-0.06,-2.69,1.27,40.81
28.675066,-0.0083,-0.0205,1.0039,0.00,0.00,-0.06,-2.69,1.27,40.81
28.675066,-0.0078,-0.0210,1.0044,0.00,0.00,-0.06,-2.69,1.27,40.82
28.701122,-0.0093,-0.0215,1.0039,0.00,0.00,0.00,-2.69,1.27,40.82
28.701122,-0.0088,-0.0210,1.0039,0.00,0.00,-0.06,-2.69,1.27,40.82
28.768756,-0.0088,-0.0220,1.0029,0.00,0.00,0.00,-2.69,1.27,40.82
28.768756,-0.0088,-0.0215,1.0034,0.00,0.00,-0.06,-2.69,1.27,40.82
28.789026,-0.0093,-0.0220,1.0034,0.00,0.00,-0.06,-2.69,1.27,40.82
28.789026,-0.0083,-0.0210,1.0034,0.00,0.00,-0.06,-2.69,1.27,40.82
28.818389,-0.0088,-0.0215,1.0029,0.00,0.00,-0.06,-2.69,1.27,40.82
28.818389,-0.0088,-0.0215,1.0024,0.00,0.00,-0.06,-2.69,1.27,40.82
28.879213,-0.0088,-0.0220,1.0039,0.00,0.00,-0.06,-2.69,1.27,40.82
28.879213,-0.0088,-0.0220,1.0020,0.00,0.00,-0.06,-2.69,1.27,40.82
28.908944,-0.0098,-0.0210,1.0039,0.00,0.00,-0.06,-2.69,1.28,40.82
28.908944,-0.0088,-0.0215,1.0029,0.00,0.00,-0.12,-2.69,1.28,40.82
28.939920,-0.0088,-0.0215,1.0024,0.00,0.00,-0.06,-2.69,1.28,40.82
28.939920,-0.0083,-0.0215,1.0039,0.00,0.00,-0.12,-2.69,1.28,40.82
28.999042,-0.0083,-0.0210,1.0039,0.00,0.00,-0.06,-2.69,1.28,40.82
28.999042,-0.0088,-0.0215,1.0034,0.00,0.06,-0.12,-2.69,1.28,40.82
29.028669,-0.0083,-0.0215,1.0044,0.00,0.00,-0.06,-2.69,1.28,40.82
29.028669,-0.0083,-0.0215,1.0029,0.00,0.00,-0.06,-2.69,1.28,40.83
29.059080,-0.0093,-0.0215,1.0029,0.00,0.00,-0.06,-2.69,1.28,40.83
29.059080,-0.0088,-0.0205,1.0034,0.00,0.00,-0.06,-2.69,1.28,40.83
29.119274,-0.0083,-0.0210,1.0034,0.00,0.00,-0.06,-2.69,1.28,40.83
29.119274,-0.0083,-0.0210,1.0029,0.00,0.00,-0.06,-2.69,1.28,40.83
29.148389,-0.0078,-0.0210,1.0029,0.00,0.00,-0.06,-2.69,1.28,40.83
29.148389,-0.0088,-0.0215,1.0034,0.00,0.00,-0.06,-2.69,1.28,40.83
29.179156,-0.0083,-0.0205,1.0029,0.00,0.00,-0.06,-2.69,1.28,40.83
29.179156,-0.0088,-0.0215,1.0029,0.00,0.00,-0.06,-2.69,1.27,40.83
29.239608,-0.0088,-0.0210,1.0034,0.00,0.00,-0.06,-2.69,1.27,40.83
29.239608,-0.0083,-0.0215,1.0029,0.00,0.00,-0.06,-2.69,1.27,40.83
29.268346,-0.0093,-0.0210,1.0034,0.06,0.00,-0.12,-2.69,1.27,40.83
29.268346,-0.0083,-0.0210,1.0029,0.00,0.00,-0.06,-2.69,1.27,40.83
29.328327,-0.0078,-0.0210,1.0044,0.00,0.00,0.00,-2.69,1.27,40.83
29.328327,-0.0083,-0.0210,1.0039,0.00,0.00,-0.06,-2.69,1.27,40.83
29.359256,-0.0088,-0.0210,1.0034,0.00,0.00,0.00,-2.69,1.27,40.83
29.359256,-0.0088,-0.0210,1.0039,0.00,0.00,-0.06,-2.69,1.27,40.83
29.388506,-0.0093,-0.0210,1.0039,0.00,0.00,-0.06,-2.69,1.27,40.83
29.388506,-0.0088,-0.0210,1.0024,0.00,0.00,-0.06,-2.69,1.27,40.83
29.458697,-0.0088,-0.0215,1.0034,0.00,0.00,-0.12,-2.69,1.27,40.83
29.458697,-0.0083,-0.0215,1.0034,0.00,0.00,-0.06,-2.69,1.27,40.83
29.496495,-0.0093,-0.0210,1.0039,0.00,0.00,-0.06,-2.69,1.27,40.83
29.496495,-0.0083,-0.0215,1.0039,0.00,0.00,-0.06,-2.69,1.27,40.83
29.509124,-0.0088,-0.0215,1.0039,0.00,0.00,-0.06,-2.69,1.27,40.83
29.509124,-0.0088,-0.0220,1.0034,0.06,0.00,0.00,-2.69,1.28,40.83
29.569136,-0.0083,-0.0215,1.0034,0.00,0.00,-0.06,-2.69,1.28,40.83
29.569136,-0.0083,-0.0229,1.0029,0.00,0.00,-0.06,-2.69,1.28,40.83
29.601082,-0.0088,-0.0220,1.0044,0.00,0.00,-0.12,-2.69,1.27,40.83
29.601082,-0.0093,-0.0220,1.0039,0.00,0.00,0.00,-2.69,1.27,40.83
29.631099,-0.0088,-0.0210,1.0044,0.00,0.00,-0.06,-2.69,1.28,40.83
29.631099,-0.0088,-0.0210,1.0039,0.00,0.00,-0.06,-2.69,1.28,40.83
29.689812,-0.0088,-0.0215,1.0034,0.00,0.00,-0.12,-2.69,1.28,40.83
29.689812,-0.0088,-0.0215,1.0039,0.00,0.00,-0.06,-2.69,1.28,40.83
29.718400,-0.0088,-0.0210,1.0034,0.06,0.00,-0.12,-2.69,1.28,40.83
29.718400,-0.0078,-0.0215,1.0034,0.00,0.00,0.00,-2.69,1.28,40.83
29.748413,-0.0088,-0.0210,1.0034,0.00,0.00,0.00,-2.69,1.28,40.83
29.748413,-0.0083,-0.0205,1.0039,0.00,0.00,-0.06,-2.69,1.28,40.83
29.809119,-0.0088,-0.0220,1.0034,0.00,0.00,-0.12,-2.69,1.28,40.83
29.809119,-0.0078,-0.0210,1.0034,0.00,0.00,-0.12,-2.69,1.28,40.83
29.839389,-0.0083,-0.0205,1.0029,0.00,0.00,-0.06,-2.69,1.28,40.84
29.839389,-0.0078,-0.0220,1.0039,0.00,0.00,0.00,-2.69,1.28,40.84
29.869544,-0.0088,-0.0225,1.0039,0.00,0.00,-0.06,-2.69,1.28,40.84
29.869544,-0.0083,-0.0220,1.0039,0.00,0.00,-0.12,-2.69,1.28,40.84
29.929088,-0.0083,-0.0210,1.0034,0.00,0.00,-0.06,-2.69,1.27,40.84
29.929088,-0.0088,-0.0215,1.0039,0.00,0.00,-0.06,-2.69,1.27,40.84
29.958497,-0.0083,-0.0220,1.0039,0.00,0.00,-0.06,-2.69,1.27,40.84
29.958497,-0.0083,-0.0210,1.0039,0.00,0.00,-0.06,-2.69,1.27,40.84
29.989098,-0.0093,-0.0220,1.0029,0.00,0.00,-0.06,-2.69,1.27,40.84
29.989098,-0.0093,-0.0215,1.0029,0.00,0.00,-0.06,-2.69,1.27,40.84
30.049205,-0.0078,-0.0210,1.0029,0.00,0.00,-0.12,-2.69,1.27,40.84
30.049205,-0.0093,-0.0205,1.0039,0.00,0.00,-0.06,-2.69,1.27,40.84
30.078378,-0.0093,-0.0210,1.0034,0.00,0.00,-0.06,-2.69,1.27,40.84
30.078378,-0.0083,-0.0210,1.0024,0.06,0.00,-0.06,-2.69,1.27,40.84
30.109224,-0.0083,-0.0205,1.0039,0.00,0.00,-0.06,-2.69,1.27,40.84
30.109224,-0.0088,-0.0210,1.0029,0.00,0.00,-0.06,-2.69,1.28,40.84
30.169211,-0.0088,-0.0210,1.0034,0.00,0.00,-0.06,-2.69,1.28,40.84
30.169211,-0.0083,-0.0210,1.0029,0.00,0.00,-0.06,-2.69,1.28,40.84
30.198353,-0.0088,-0.0210,1.0029,0.00,0.00,0.00,-2.69,1.28,40.84
30.198353,-0.0083,-0.0220,1.0039,0.00,0.00,-0.12,-2.69,1.28,40.84
30.229112,-0.0078,-0.0215,1.0039,0.00,-0.06,-0.06,-2.69,1.28,40.84
30.229112,-0.0088,-0.0210,1.0039,0.00,0.00,-0.06,-2.69,1.28,40.84
30.291137,-0.0088,-0.0215,1.0039,0.06,0.00,-0.12,-2.69,1.28,40.84
30.291137,-0.0083,-0.0210,1.0034,0.00,0.00,-0.06,-2.69,1.27,40.84
30.319711,-0.0088,-0.0210,1.0044,0.00,0.00,0.00,-2.69,1.27,40.84
30.319711,-0.0088,-0.0225,1.0039,0.00,0.00,0.00,-2.69,1.27,40.84
30.350449,-0.0083,-0.0205,1.0034,-0.06,0.00,-0.06,-2.69,1.27,40.84
30.350449,-0.0083,-0.0210,1.0039,0.00,0.00,-0.06,-2.69,1.27,40.84
30.408584,-0.0078,-0.0210,1.0034,0.00,0.00,-0.06,-2.69,1.27,40.84
30.408584,-0.0093,-0.0210,1.0039,0.00,-0.06,-0.12,-2.69,1.27,40.84
30.439470,-0.0093,-0.0215,1.0039,0.06,0.00,-0.06,-2.69,1.27,40.84
30.439470,-0.0088,-0.0220,1.0034,0.00,0.00,-0.06,-2.69,1.27,40.84
30.468449,-0.0083,-0.0210,1.0039,0.00,0.00,-0.06,-2.69,1.27,40.84
30.468449,-0.0088,-0.0220,1.0039,0.00,0.00,-0.06,-2.69,1.27,40.84
30.529171,-0.0093,-0.0215,1.0049,0.00,0.00,-0.06,-2.69,1.27,40.84
30.529171,-0.0093,-0.0220,1.0034,0.00,0.00,0.00,-2.69,1.27,40.84
30.562309,-0.0088,-0.0220,1.0044,0.00,0.00,-0.06,-2.69,1.28,40.84
30.562309,-0.0093,-0.0210,1.0044,0.00,0.00,-0.12,-2.69,1.28,40.84
30.588935,-0.0088,-0.0215,1.0034,0.00,0.00,-0.12,-2.69,1.28,40.84
30.588935,-0.0083,-0.0215,1.0034,0.00,0.00,-0.12,-2.69,1.28,40.84
30.649182,-0.0088,-0.0210,1.0044,0.00,0.06,-0.12,-2.69,1.28,40.84
30.649182,-0.0078,-0.0215,1.0034,0.00,0.00,0.00,-2.69,1.28,40.85
30.678533,-0.0088,-0.0215,1.0024,0.00,-0.06,-0.12,-2.69,1.28,40.85
30.678533,-0.0093,-0.0210,1.0034,-0.06,0.00,-0.06,-2.69,1.28,40.85
30.738882,-0.0088,-0.0210,1.0039,0.00,0.00,-0.06,-2.69,1.28,40.85
30.738882,-0.0088,-0.0215,1.0029,0.00,0.00,-0.06,-2.69,1.28,40.85
30.771199,-0.0088,-0.0220,1.0029,0.00,0.00,-0.12,-2.69,1.28,40.85
30.771199,-0.0088,-0.0215,1.0024,0.00,0.00,-0.12,-2.69,1.28,40.85
30.801119,-0.0078,-0.0215,1.0034,0.00,0.00,-0.06,-2.69,1.28,40.85
30.801119,-0.0088,-0.0220,1.0029,0.00,0.00,-0.12,-2.69,1.28,40.85
30.859213,-0.0088,-0.0210,1.0024,0.00,0.06,-0.06,-2.69,1.28,40.85
30.859213,-0.0093,-0.0210,1.0029,0.00,0.00,0.00,-2.69,1.28,40.85
30.888478,-0.0083,-0.0215,1.0029,0.00,0.00,-0.06,-2.69,1.28,40.85
30.888478,-0.0088,-0.0215,1.0029,-0.06,0.00,-0.06,-2.69,1.28,40.85
30.924180,-0.0088,-0.0215,1.0034,0.00,0.00,-0.06,-2.69,1.28,40.85
30.924180,-0.0088,-0.0220,1.0029,0.00,0.00,0.00,-2.69,1.28,40.85
30.979197,-0.0093,-0.0205,1.0029,0.00,0.00,-0.06,-2.69,1.28,40.85
30.979197,-0.0088,-0.0215,1.0024,0.00,0.00,-0.06,-2.69,1.28,40.85
31.008388,-0.0093,-0.0215,1.0029,0.00,0.00,-0.06,-2.69,1.28,40.85
31.008388,-0.0093,-0.0205,1.0039,0.00,0.00,-0.06,-2.69,1.28,40.85
31.039479,-0.0088,-0.0205,1.0029,0.00,0.00,-0.06,-2.69,1.28,40.85
31.039479,-0.0083,-0.0210,1.0024,-0.06,0.00,-0.06,-2.69,1.28,40.85
31.099322,-0.0088,-0.0215,1.0034,0.00,0.00,-0.06,-2.69,1.28,40.85
31.099322,-0.0088,-0.0220,1.0034,0.00,0.00,0.00,-2.69,1.28,40.85
31.128381,-0.0083,-0.0215,1.0029,0.00,0.00,-0.12,-2.69,1.28,40.85
31.128381,-0.0098,-0.0210,1.0034,0.06,0.00,-0.06,-2.69,1.28,40.85
31.159223,-0.0093,-0.0205,1.0034,0.06,0.00,-0.06,-2.69,1.28,40.85
31.159223,-0.0093,-0.0210,1.0039,0.00,0.00,-0.12,-2.69,1.28,40.85
31.219700,-0.0088,-0.0200,1.0039,0.00,0.00,-0.06,-2.69,1.28,40.85
31.219700,-0.0083,-0.0215,1.0034,-0.06,0.00,-0.06,-2.69,1.28,40.85
31.249131,-0.0088,-0.0210,1.0029,0.00,0.00,-0.06,-2.69,1.28,40.85
31.249131,-0.0088,-0.0205,1.0029,0.00,0.00,0.00,-2.69,1.28,40.85
31.278373,-0.0083,-0.0210,1.0029,0.00,0.00,-0.12,-2.69,1.28,40.85
31.278373,-0.0093,-0.0220,1.0034,0.00,0.00,-0.06,-2.69,1.28,40.85
31.339776,-0.0083,-0.0210,1.0024,0.00,0.00,-0.06,-2.69,1.28,40.85
31.339776,-0.0083,-0.0205,1.0029,0.00,0.00,-0.12,-2.69,1.28,40.85
31.371265,-0.0078,-0.0220,1.0039,0.00,0.00,-0.06,-2.69,1.28,40.85
31.371265,-0.0088,-0.0210,1.0029,0.00,0.00,-0.06,-2.69,1.28,40.85
31.401166,-0.0088,-0.0200,1.0020,0.00,0.00,-0.06,-2.69,1.28,40.85
31.401166,-0.0088,-0.0215,1.0034,0.00,0.00,0.00,-2.69,1.28,40.85
31.459265,-0.0088,-0.0215,1.0029,0.00,0.00,-0.12,-2.69,1.28,40.85
31.459265,-0.0088,-0.0220,1.0029,0.00,0.00,-0.06,-2.69,1.28,40.85
31.488521,-0.0088,-0.0210,1.0034,0.00,0.00,0.00,-2.69,1.28,40.85
31.488521,-0.0093,-0.0210,1.0034,0.00,0.00,-0.06,-2.69,1.28,40.86
31.535085,-0.0093,-0.0215,1.0029,0.00,0.00,-0.06,-2.69,1.28,40.86
31.535085,-0.0083,-0.0210,1.0029,0.06,0.00,-0.12,-2.69,1.28,40.86
31.579196,-0.0078,-0.0210,1.0024,0.00,0.00,0.00,-2.69,1.28,40.86
31.579196,-0.0083,-0.0215,1.0015,0.00,0.00,-0.12,-2.69,1.28,40.86
31.608499,-0.0083,-0.0210,1.0029,0.00,0.00,0.00,-2.69,1.28,40.86
31.608499,-0.0083,-0.0215,1.0024,0.00,0.00,0.00,-2.69,1.28,40.86
31.639507,-0.0083,-0.0215,1.0039,0.00,0.00,0.00,-2.69,1.28,40.86
31.639507,-0.0083,-0.0215,1.0039,0.00,0.00,-0.06,-2.69,1.28,40.86
31.700846,-0.0088,-0.0205,1.0034,0.00,0.00,-0.06,-2.69,1.28,40.86
31.700846,-0.0088,-0.0210,1.0029,0.00,0.00,0.00,-2.69,1.28,40.86
31.728328,-0.0083,-0.0210,1.0029,0.00,0.00,-0.06,-2.69,1.28,40.86
31.728328,-0.0083,-0.0215,1.0029,0.00,0.00,-0.12,-2.69,1.28,40.86
31.758440,-0.0088,-0.0220,1.0024,0.00,0.00,-0.06,-2.69,1.28,40.86
31.758440,-0.0088,-0.0215,1.0020,0.00,0.00,-0.06,-2.69,1.28,40.86
31.819304,-0.0088,-0.0215,1.0034,0.00,0.00,0.00,-2.69,1.28,40.86
31.819304,-0.0078,-0.0210,1.0029,0.00,0.00,-0.06,-2.69,1.28,40.86
31.848463,-0.0088,-0.0220,1.0029,0.06,0.00,-0.06,-2.69,1.28,40.86
31.848463,-0.0078,-0.0215,1.0020,0.00,0.00,-0.12,-2.69,1.28,40.86
31.885852,-0.0088,-0.0210,1.0020,0.00,0.00,-0.06,-2.69,1.28,40.86
31.885852,-0.0083,-0.0210,1.0020,0.00,0.00,-0.06,-2.69,1.28,40.86
31.939592,-0.0093,-0.0210,1.0020,0.00,0.00,-0.06,-2.69,1.28,40.86
31.939592,-0.0093,-0.0215,1.0015,0.00,0.00,-0.06,-2.69,1.28,40.86
31.968457,-0.0093,-0.0215,1.0024,0.00,0.00,0.00,-2.69,1.28,40.86
31.968457,-0.0088,-0.0215,1.0029,0.00,0.00,0.00,-2.69,1.28,40.86
31.999284,-0.0088,-0.0215,1.0034,0.06,0.00,-0.06,-2.69,1.28,40.86
31.999284,-0.0093,-0.0210,1.0034,0.00,-0.06,-0.06,-2.69,1.28,40.86
32.059224,-0.0088,-0.0220,1.0024,0.00,0.00,0.00,-2.69,1.28,40.86
32.059224,-0.0093,-0.0220,1.0029,0.00,0.00,-0.06,-2.69,1.28,40.86
32.088785,-0.0098,-0.0210,1.0029,0.00,0.00,-0.06,-2.69,1.28,40.86
32.088785,-0.0093,-0.0215,1.0034,0.00,0.00,-0.12,-2.69,1.28,40.86
32.149248,-0.0088,-0.0220,1.0029,0.00,0.00,-0.06,-2.69,1.28,40.86
32.149248,-0.0078,-0.0210,1.0039,0.00,0.00,-0.06,-2.69,1.28,40.86
32.178437,-0.0088,-0.0210,1.0039,0.00,0.00,-0.12,-2.69,1.28,40.86
32.178437,-0.0078,-0.0215,1.0039,0.00,0.00,-0.06,-2.69,1.28,40.86
32.209268,-0.0078,-0.0210,1.0029,0.00,0.00,-0.06,-2.69,1.28,40.86
32.209268,-0.0088,-0.0220,1.0029,0.00,0.00,-0.06,-2.69,1.28,40.86
32.269198,-0.0083,-0.0220,1.0044,0.00,0.00,-0.06,-2.69,1.28,40.86
32.269198,-0.0083,-0.0220,1.0034,0.00,0.00,-0.12,-2.69,1.28,40.86
32.301947,-0.0093,-0.0215,1.0020,0.00,0.00,-0.06,-2.69,1.28,40.86
32.301947,-0.0088,-0.0215,1.0020,0.00,0.00,-0.06,-2.69,1.28,40.86
32.329277,-0.0088,-0.0210,1.0029,0.00,0.00,-0.06,-2.69,1.28,40.86
32.329277,-0.0093,-0.0205,1.0034,0.00,0.00,-0.06,-2.69,1.28,40.86
32.388563,-0.0083,-0.0205,1.0029,0.00,0.00,-0.06,-2.69,1.28,40.86
32.388563,-0.0083,-0.0215,1.0034,0.00,0.00,-0.06,-2.69,1.28,40.86
32.418854,-0.0088,-0.0220,1.0039,0.00,0.00,-0.06,-2.69,1.28,40.86
32.418854,-0.0093,-0.0215,1.0029,0.00,0.00,-0.06,-2.69,1.28,40.87
32.479405,-0.0088,-0.0220,1.0029,0.00,0.00,-0.06,-2.69,1.28,40.87
32.479405,-0.0093,-0.0215,1.0034,0.00,0.00,-0.06,-2.69,1.28,40.87
32.508569,-0.0088,-0.0210,1.0029,0.00,0.00,-0.06,-2.69,1.28,40.87
32.508569,-0.0088,-0.0220,1.0024,0.00,0.00,0.00,-2.69,1.28,40.87
32.554249,-0.0078,-0.0215,1.0029,0.00,0.00,-0.06,-2.69,1.28,40.87
32.554249,-0.0088,-0.0215,1.0034,0.00,0.00,-0.12,-2.69,1.28,40.87
32.568679,-0.0078,-0.0210,1.0034,0.00,0.00,-0.06,-2.69,1.28,40.87
32.568679,-0.0093,-0.0220,1.0024,0.00,0.00,-0.06,-2.69,1.28,40.87
32.629304,-0.0093,-0.0210,1.0024,0.00,0.00,0.00,-2.69,1.28,40.87
32.629304,-0.0083,-0.0210,1.0029,0.00,0.00,-0.06,-2.69,1.28,40.87
32.658524,-0.0083,-0.0210,1.0034,0.00,0.00,0.00,-2.69,1.28,40.87
32.658524,-0.0088,-0.0215,1.0029,0.00,0.00,-0.06,-2.69,1.28,40.87
32.689239,-0.0083,-0.0205,1.0029,0.00,0.00,-0.06,-2.69,1.28,40.87
32.689239,-0.0083,-0.0210,1.0034,0.00,0.00,-0.06,-2.69,1.28,40.87
32.748561,-0.0083,-0.0210,1.0039,0.00,0.00,-0.12,-2.69,1.28,40.87
32.748561,-0.0083,-0.0215,1.0034,0.00,0.06,-0.06,-2.69,1.28,40.87
32.779225,-0.0078,-0.0210,1.0029,0.00,0.00,-0.06,-2.69,1.28,40.87
32.779225,-0.0088,-0.0210,1.0024,0.00,0.00,0.00,-2.69,1.28,40.87
32.808528,-0.0088,-0.0215,1.0024,0.00,0.00,-0.06,-2.69,1.28,40.87
32.808528,-0.0083,-0.0215,1.0034,0.00,0.00,-0.06,-2.69,1.28,40.87
32.869287,-0.0093,-0.0220,1.0024,0.00,0.00,-0.06,-2.69,1.28,40.87
32.869287,-0.0083,-0.0220,1.0024,0.00,0.00,-0.06,-2.69,1.28,40.87
32.901166,-0.0093,-0.0215,1.0029,0.00,0.00,-0.06,-2.69,1.28,40.87
32.901166,-0.0078,-0.0215,1.0029,0.00,0.00,0.00,-2.69,1.28,40.87
32.931198,-0.0093,-0.0210,1.0029,0.06,0.00,0.00,-2.69,1.28,40.87
32.931198,-0.0088,-0.0215,1.0020,0.00,0.00,-0.06,-2.69,1.28,40.87
32.994798,-0.0088,-0.0215,1.0020,0.00,0.00,-0.06,-2.69,1.28,40.87
32.994798,-0.0088,-0.0215,1.0029,0.00,0.00,-0.06,-2.69,1.28,40.87
33.021544,-0.0088,-0.0210,1.0034,0.00,0.00,-0.06,-2.69,1.28,40.87
33.021544,-0.0083,-0.0215,1.0015,0.00,0.00,-0.06,-2.69,1.28,40.87
33.048492,-0.0093,-0.0210,1.0029,0.00,0.00,-0.06,-2.69,1.28,40.87
33.048492,-0.0088,-0.0205,1.0034,0.00,0.00,-0.12,-2.69,1.28,40.87
33.109321,-0.0093,-0.0215,1.0029,0.00,0.00,-0.06,-2.69,1.28,40.87
33.109321,-0.0088,-0.0215,1.0024,0.00,0.00,0.00,-2.69,1.28,40.87
33.139570,-0.0088,-0.0215,1.0015,0.00,0.00,-0.12,-2.69,1.28,40.87
33.139570,-0.0088,-0.0210,1.0029,0.00,0.00,-0.06,-2.69,1.28,40.87
33.168486,-0.0083,-0.0210,1.0034,0.00,0.00,0.00,-2.69,1.28,40.87
33.168486,-0.0083,-0.0220,1.0024,0.00,0.00,-0.06,-2.69,1.28,40.87
33.229264,-0.0088,-0.0220,1.0044,0.00,0.00,-0.18,-2.69,1.28,40.87
33.229264,-0.0083,-0.0210,1.0029,0.00,0.00,-0.06,-2.69,1.28,40.87
33.258464,-0.0088,-0.0215,1.0020,0.06,0.00,-0.06,-2.69,1.28,40.87
33.258464,-0.0088,-0.0215,1.0034,0.06,0.00,-0.06,-2.69,1.28,40.87
33.293896,-0.0083,-0.0220,1.0024,0.00,0.00,-0.12,-2.69,1.28,40.87
33.293896,-0.0088,-0.0210,1.0034,0.00,0.00,-0.06,-2.69,1.28,40.87
33.349368,-0.0088,-0.0220,1.0029,0.00,0.00,0.00,-2.69,1.28,40.87
33.349368,-0.0093,-0.0215,1.0039,0.00,0.00,0.00,-2.69,1.28,40.87
33.378661,-0.0088,-0.0210,1.0029,0.00,0.00,0.00,-2.69,1.28,40.87
33.378661,-0.0083,-0.0210,1.0039,0.00,0.00,0.00,-2.69,1.28,40.87
33.409331,-0.0093,-0.0220,1.0044,0.00,0.00,-0.06,-2.69,1.28,40.88
33.409331,-0.0088,-0.0220,1.0034,0.00,0.00,-0.12,-2.69,1.28,40.88
33.468608,-0.0098,-0.0210,1.0024,0.06,0.00,-0.06,-2.69,1.28,40.88
33.468608,-0.0088,-0.0210,1.0034,0.00,0.00,-0.06,-2.69,1.28,40.88
33.499334,-0.0093,-0.0220,1.0044,0.00,0.00,-0.06,-2.69,1.28,40.88
33.499334,-0.0088,-0.0215,1.0034,0.00,0.00,-0.06,-2.69,1.28,40.88
33.559253,-0.0083,-0.0220,1.0024,0.00,0.00,-0.06,-2.69,1.28,40.88
33.559253,-0.0088,-0.0225,1.0039,0.00,0.00,-0.06,-2.69,1.28,40.88
33.605351,-0.0088,-0.0215,1.0034,0.00,0.00,-0.06,-2.69,1.28,40.88
33.605351,-0.0083,-0.0215,1.0039,0.06,0.00,-0.06,-2.69,1.28,40.88
33.619235,-0.0088,-0.0215,1.0039,0.00,0.06,-0.12,-2.69,1.28,40.88
33.619235,-0.0088,-0.0210,1.0034,0.06,0.00,0.00,-2.69,1.28,40.88
33.678505,-0.0093,-0.0215,1.0034,0.00,0.00,-0.06,-2.69,1.28,40.88
33.678505,-0.0093,-0.0215,1.0034,0.00,0.00,-0.18,-2.69,1.28,40.88
33.709747,-0.0093,-0.0215,1.0029,0.00,0.00,-0.06,-2.69,1.28,40.88
33.709747,-0.0093,-0.0215,1.0039,0.00,0.00,-0.12,-2.69,1.28,40.88
33.739831,-0.0088,-0.0215,1.0044,-0.06,0.00,-0.06,-2.69,1.28,40.88
33.739831,-0.0083,-0.0220,1.0034,0.00,0.00,-0.06,-2.69,1.28,40.88
33.799260,-0.0088,-0.0215,1.0039,0.00,0.00,0.00,-2.69,1.28,40.88
33.799260,-0.0093,-0.0210,1.0039,0.00,0.00,-0.12,-2.69,1.28,40.88
33.828659,-0.0088,-0.0210,1.0034,0.00,0.00,-0.12,-2.69,1.28,40.88
33.828659,-0.0088,-0.0215,1.0034,0.00,0.00,-0.06,-2.69,1.28,40.88
33.859345,-0.0083,-0.0215,1.0024,0.00,0.00,-0.06,-2.69,1.28,40.88
33.859345,-0.0093,-0.0210,1.0029,0.00,0.00,-0.06,-2.69,1.28,40.88
33.919245,-0.0078,-0.0215,1.0029,0.00,0.00,-0.06,-2.69,1.28,40.88
33.919245,-0.0088,-0.0205,1.0024,0.00,0.00,-0.06,-2.69,1.28,40.88
33.948401,-0.0093,-0.0210,1.0044,0.00,0.00,0.00,-2.69,1.28,40.89
33.948401,-0.0093,-0.0215,1.0029,0.00,0.00,-0.06,-2.69,1.28,40.89
33.978639,-0.0093,-0.0215,1.0034,0.00,0.00,-0.06,-2.69,1.28,40.89
33.978639,-0.0083,-0.0215,1.0034,0.00,0.00,-0.06,-2.69,1.28,40.89
34.069255,-0.0093,-0.0220,1.0029,0.00,0.00,-0.06,-2.69,1.28,40.89
34.069255,-0.0083,-0.0220,1.0020,0.00,0.00,-0.06,-2.69,1.28,40.89
34.071504,-0.0088,-0.0210,1.0034,-0.06,0.00,-0.06,-2.69,1.28,40.89
34.071504,-0.0088,-0.0215,1.0029,0.00,0.00,-0.06,-2.69,1.28,40.89
34.101383,-0.0088,-0.0220,1.0034,0.00,0.00,-0.12,-2.69,1.28,40.89
34.101383,-0.0088,-0.0220,1.0034,0.06,0.00,-0.12,-2.69,1.28,40.89
34.159240,-0.0088,-0.0210,1.0044,0.00,0.00,0.00,-2.69,1.28,40.89
34.159240,-0.0088,-0.0215,1.0039,0.00,0.00,0.00,-2.69,1.28,40.89
34.189239,-0.0088,-0.0210,1.0029,0.00,0.00,-0.06,-2.69,1.28,40.89
34.189239,-0.0083,-0.0205,1.0029,0.00,0.00,0.00,-2.69,1.28,40.89
34.218395,-0.0078,-0.0210,1.0029,0.00,0.00,-0.06,-2.69,1.28,40.89
34.218395,-0.0078,-0.0215,1.0039,0.00,0.00,-0.06,-2.69,1.28,40.89
34.279288,-0.0083,-0.0215,1.0034,0.06,0.00,-0.12,-2.69,1.28,40.89
34.279288,-0.0088,-0.0215,1.0044,0.00,0.00,0.00,-2.69,1.28,40.89
34.308822,-0.0083,-0.0205,1.0044,0.00,0.00,-0.06,-2.69,1.28,40.89
34.308822,-0.0083,-0.0215,1.0034,0.00,0.00,-0.06,-2.69,1.28,40.89
34.339349,-0.0083,-0.0210,1.0034,0.00,0.00,-0.06,-2.69,1.28,40.89
34.339349,-0.0083,-0.0215,1.0039,0.00,0.00,-0.06,-2.69,1.28,40.89
34.399210,-0.0088,-0.0215,1.0039,0.00,0.00,-0.06,-2.69,1.28,40.89
34.399210,-0.0083,-0.0215,1.0034,0.00,0.00,-0.06,-2.69,1.28,40.89
34.428395,-0.0088,-0.0210,1.0039,0.00,0.00,-0.12,-2.69,1.28,40.89
34.428395,-0.0073,-0.0220,1.0024,0.00,0.00,-0.06,-2.69,1.28,40.89
34.459129,-0.0088,-0.0225,1.0024,0.00,0.00,-0.06,-2.69,1.28,40.89
34.459129,-0.0088,-0.0215,1.0024,0.00,0.00,0.00,-2.69,1.28,40.89
34.518580,-0.0078,-0.0205,1.0034,0.00,0.00,-0.06,-2.69,1.28,40.89
34.518580,-0.0088,-0.0210,1.0020,0.00,0.00,-0.12,-2.69,1.28,40.89
34.548687,-0.0078,-0.0215,1.0034,0.00,0.00,-0.06,-2.69,1.28,40.89
34.548687,-0.0093,-0.0215,1.0034,0.00,0.00,-0.12,-2.69,1.28,40.89
34.579187,-0.0083,-0.0225,1.0039,0.00,0.00,0.00,-2.69,1.28,40.89
34.579187,-0.0083,-0.0205,1.0034,0.00,0.00,-0.06,-2.69,1.28,40.89
34.638738,-0.0088,-0.0210,1.0034,0.00,0.00,-0.06,-2.69,1.28,40.89
34.638738,-0.0093,-0.0210,1.0029,0.00,0.00,-0.06,-2.69,1.28,40.89
34.668425,-0.0083,-0.0210,1.0034,0.00,0.00,0.00,-2.69,1.28,40.89
34.668425,-0.0078,-0.0205,1.0044,0.00,0.00,-0.06,-2.69,1.28,40.89
34.698554,-0.0073,-0.0210,1.0029,0.00,0.00,-0.12,-2.69,1.28,40.89
34.698554,-0.0083,-0.0215,1.0039,0.00,0.00,-0.06,-2.69,1.28,40.89
34.776197,-0.0088,-0.0210,1.0034,0.00,0.00,-0.06,-2.69,1.28,40.89
34.776197,-0.0093,-0.0210,1.0034,0.00,0.00,-0.06,-2.69,1.28,40.89
34.813005,-0.0088,-0.0210,1.0024,0.00,0.00,0.00,-2.69,1.28,40.89
34.813005,-0.0088,-0.0215,1.0029,0.06,0.00,-0.06,-2.69,1.28,40.89
34.818451,-0.0093,-0.0215,1.0034,0.00,0.00,-0.06,-2.69,1.28,40.89
34.818451,-0.0088,-0.0220,1.0039,0.00,-0.06,-0.06,-2.69,1.28,40.89
34.878391,-0.0088,-0.0215,1.0029,0.00,0.00,-0.06,-2.69,1.28,40.89
34.878391,-0.0093,-0.0215,1.0034,0.00,0.00,0.00,-2.69,1.28,40.89
34.909494,-0.0088,-0.0210,1.0034,0.00,0.00,0.00,-2.69,1.28,40.89
34.909494,-0.0088,-0.0200,1.0029,0.00,0.00,-0.06,-2.69,1.28,40.89
34.968444,-0.0093,-0.0210,1.0024,0.00,0.00,-0.06,-2.69,1.28,40.89
34.968444,-0.0083,-0.0215,1.0034,0.00,0.00,-0.12,-2.69,1.28,40.89
34.998336,-0.0088,-0.0215,1.0034,0.06,0.00,-0.06,-2.69,1.28,40.89
34.998336,-0.0093,-0.0215,1.0044,0.00,-0.06,-0.06,-2.69,1.28,40.89
35.028402,-0.0083,-0.0210,1.0039,0.00,0.00,-0.06,-2.69,1.28,40.89
35.028402,-0.0083,-0.0210,1.0034,0.00,0.00,-0.06,-2.69,1.28,40.89
35.088684,-0.0088,-0.0220,1.0039,0.00,0.00,-0.06,-2.69,1.28,40.90
35.088684,-0.0078,-0.0215,1.0034,0.00,0.00,-0.06,-2.69,1.28,40.90
35.118411,-0.0093,-0.0215,1.0034,0.06,0.00,-0.06,-2.69,1.28,40.90
35.118411,-0.0078,-0.0210,1.0024,0.00,0.00,-0.06,-2.69,1.28,40.90
35.148327,-0.0093,-0.0210,1.0034,0.00,0.00,-0.06,-2.69,1.28,40.90
35.148327,-0.0088,-0.0215,1.0034,0.00,0.00,-0.06,-2.69,1.28,40.90
35.209307,-0.0088,-0.0210,1.0034,0.06,0.00,-0.06,-2.69,1.28,40.90
35.209307,-0.0088,-0.0210,1.0039,0.00,0.00,0.00,-2.69,1.28,40.90
35.240000,-0.0088,-0.0210,1.0039,-0.06,-0.06,0.00,-2.69,1.28,40.90
35.240000,-0.0078,-0.0205,1.0039,0.00,0.00,0.00,-2.69,1.28,40.90
35.268679,-0.0088,-0.0215,1.0029,0.00,0.00,-0.06,-2.69,1.28,40.90
35.268679,-0.0088,-0.0215,1.0034,0.00,0.00,-0.12,-2.69,1.28,40.90
35.379042,-0.0083,-0.0215,1.0034,0.00,0.00,-0.06,-2.69,1.28,40.90
35.379042,-0.0103,-0.0205,1.0034,0.00,0.00,-0.12,-2.69,1.28,40.90
35.379090,-0.0083,-0.0215,1.0029,0.00,0.00,-0.06,-2.69,1.28,40.90
35.379090,-0.0088,-0.0210,1.0034,0.00,0.00,-0.06,-2.69,1.28,40.90
35.388590,-0.0093,-0.0215,1.0044,0.00,0.00,-0.06,-2.69,1.28,40.90
35.388590,-0.0078,-0.0215,1.0039,0.06,0.00,-0.06,-2.69,1.28,40.90
35.448761,-0.0088,-0.0215,1.0029,0.00,0.00,-0.06,-2.69,1.28,40.90
35.448761,-0.0093,-0.0205,1.0039,0.00,0.00,-0.06,-2.69,1.28,40.90
35.478504,-0.0098,-0.0220,1.0034,0.00,0.00,-0.06,-2.69,1.28,40.90
35.478504,-0.0088,-0.0220,1.0034,0.00,0.00,-0.06,-2.69,1.28,40.90
35.508645,-0.0093,-0.0210,1.0034,0.00,0.00,-0.06,-2.69,1.28,40.90
35.508645,-0.0088,-0.0215,1.0044,0.00,0.00,-0.12,-2.69,1.28,40.90
35.568646,-0.0083,-0.0215,1.0034,0.06,0.00,-0.06,-2.69,1.28,40.90
35.568646,-0.0088,-0.0210,1.0029,0.00,0.00,0.00,-2.69,1.28,40.90
35.628664,-0.0088,-0.0215,1.0034,0.00,0.00,0.00,-2.69,1.28,40.90
35.628664,-0.0083,-0.0220,1.0029,0.00,0.00,-0.06,-2.69,1.28,40.90
35.671163,-0.0088,-0.0210,1.0029,0.00,0.00,-0.06,-2.69,1.28,40.90
35.671163,-0.0083,-0.0215,1.0034,0.00,0.00,-0.06,-2.69,1.28,40.90
35.688408,-0.0093,-0.0210,1.0034,0.00,0.00,-0.06,-2.69,1.28,40.90
35.688408,-0.0093,-0.0205,1.0029,0.00,0.00,-0.12,-2.69,1.28,40.90
35.718619,-0.0083,-0.0210,1.0024,0.00,0.00,-0.06,-2.69,1.28,40.90
35.718619,-0.0093,-0.0210,1.0029,0.00,0.00,-0.06,-2.69,1.28,40.90
35.748574,-0.0088,-0.0215,1.0029,0.00,0.00,-0.06,-2.69,1.28,40.90
35.748574,-0.0093,-0.0215,1.0034,0.00,0.00,0.00,-2.69,1.28,40.90
35.808571,-0.0093,-0.0210,1.0034,0.00,0.00,-0.06,-2.69,1.28,40.90
35.808571,-0.0083,-0.0210,1.0029,0.00,0.00,-0.06,-2.69,1.28,40.90
35.838783,-0.0083,-0.0205,1.0034,0.00,0.00,0.00,-2.69,1.28,40.90
35.838783,-0.0088,-0.0215,1.0039,0.00,0.00,-0.06,-2.69,1.28,40.90
35.868545,-0.0088,-0.0210,1.0015,0.00,0.00,-0.06,-2.69,1.28,40.90
35.868545,-0.0088,-0.0215,1.0024,0.00,0.00,-0.06,-2.69,1.28,40.90
35.928518,-0.0088,-0.0205,1.0044,0.06,0.00,-0.06,-2.69,1.28,40.90
35.928518,-0.0093,-0.0215,1.0039,0.06,0.00,-0.06,-2.69,1.28,40.90
35.958462,-0.0088,-0.0215,1.0034,-0.06,0.00,-0.06,-2.69,1.28,40.90
35.958462,-0.0073,-0.0220,1.0029,-0.06,0.00,-0.06,-2.69,1.28,40.90
35.988469,-0.0083,-0.0215,1.0020,0.00,0.00,-0.06,-2.69,1.28,40.90
35.988469,-0.0088,-0.0210,1.0034,0.06,0.06,-0.06,-2.69,1.28,40.90
36.048608,-0.0088,-0.0200,1.0039,0.06,0.00,0.00,-2.69,1.28,40.90
36.048608,-0.0088,-0.0215,1.0039,0.00,0.00,0.00,-2.69,1.28,40.90
36.078509,-0.0093,-0.0220,1.0044,0.00,0.00,-0.06,-2.69,1.28,40.90
36.078509,-0.0093,-0.0225,1.0044,0.00,0.00,-0.06,-2.69,1.28,40.90
36.108626,-0.0083,-0.0215,1.0039,-0.06,0.00,-0.12,-2.69,1.28,40.90
36.108626,-0.0093,-0.0220,1.0034,-0.06,0.00,-0.12,-2.69,1.28,40.90
36.168489,-0.0088,-0.0225,1.0029,-0.06,0.00,-0.06,-2.69,1.28,40.90
36.168489,-0.0083,-0.0215,1.0034,0.06,0.00,-0.06,-2.69,1.28,40.90
36.198507,-0.0098,-0.0220,1.0029,0.24,0.00,-0.06,-2.69,1.28,40.90
36.198507,-0.0083,-0.0200,1.0044,0.24,0.00,-0.12,-2.69,1.28,40.90
36.228433,-0.0083,-0.0190,1.0039,0.12,0.00,-0.06,-2.69,1.28,40.90
36.228433,-0.0088,-0.0205,1.0034,0.00,0.00,-0.06,-2.69,1.28,40.91
36.288856,-0.0083,-0.0215,1.0034,-0.06,0.00,0.00,-2.69,1.28,40.91
36.288856,-0.0088,-0.0215,1.0034,-0.06,0.00,-0.06,-2.69,1.28,40.91
36.318868,-0.0083,-0.0215,1.0044,-0.18,0.00,-0.06,-2.69,1.28,40.91
36.318868,-0.0083,-0.0210,1.0034,0.00,0.00,0.00,-2.69,1.28,40.91
36.378577,-0.0083,-0.0215,1.0039,0.00,0.00,-0.06,-2.69,1.28,40.91
36.378577,-0.0088,-0.0210,1.0044,0.06,0.00,-0.06,-2.69,1.28,40.91
36.408495,-0.0073,-0.0220,1.0044,0.06,0.00,-0.06,-2.69,1.28,40.91
36.408495,-0.0083,-0.0215,1.0044,0.00,0.00,-0.06,-2.69,1.28,40.91
36.438793,-0.0078,-0.0210,1.0044,-0.06,0.00,-0.06,-2.69,1.28,40.91
36.438793,-0.0088,-0.0210,1.0039,-0.12,0.00,0.00,-2.69,1.28,40.91
36.498459,-0.0088,-0.0220,1.0044,-0.06,0.00,-0.06,-2.69,1.28,40.91
36.498459,-0.0088,-0.0215,1.0029,-0.06,0.00,-0.06,-2.69,1.28,40.91
36.528512,-0.0088,-0.0215,1.0034,0.00,0.00,-0.06,-2.69,1.28,40.91
36.528512,-0.0088,-0.0210,1.0034,0.06,0.00,-0.06,-2.69,1.28,40.91
36.558499,-0.0088,-0.0220,1.0029,0.06,0.00,-0.06,-2.69,1.28,40.91
36.558499,-0.0093,-0.0220,1.0024,0.06,0.06,-0.06,-2.69,1.28,40.91
36.618602,-0.0088,-0.0215,1.0039,0.06,0.00,-0.12,-2.69,1.28,40.91
36.618602,-0.0093,-0.0210,1.0029,0.00,0.00,-0.06,-2.69,1.28,40.91
36.648501,-0.0088,-0.0210,1.0029,-0.06,0.00,-0.06,-2.69,1.28,40.91
36.648501,-0.0098,-0.0220,1.0029,-0.06,0.00,-0.06,-2.69,1.28,40.91
36.690822,-0.0088,-0.0220,1.0034,0.00,0.00,-0.06,-2.69,1.28,40.91
36.690822,-0.0093,-0.0215,1.0029,0.00,0.00,0.00,-2.69,1.29,40.91
36.738899,-0.0088,-0.0210,1.0034,0.00,0.00,-0.06,-2.69,1.29,40.91
36.738899,-0.0088,-0.0215,1.0029,0.00,0.00,-0.12,-2.69,1.29,40.91
36.768561,-0.0088,-0.0220,1.0034,0.00,0.00,-0.06,-2.69,1.29,40.91
36.768561,-0.0088,-0.0225,1.0034,0.00,0.00,-0.06,-2.69,1.29,40.91
36.798583,-0.0083,-0.0205,1.0049,0.00,0.00,-0.06,-2.69,1.29,40.91
