t,ax,ay,az,gx,gy,gz,wx,wy,wz
0.027763,0.5469,-0.0273,0.8994,-11.60,5.62,0.61,-1.46,0.78,0.00
0.027763,0.5381,-0.0308,0.8916,-16.60,2.87,0.98,-1.46,0.78,0.00
0.027994,0.5635,-0.0679,0.8911,-24.23,1.59,-0.24,-1.46,0.78,0.00
0.027994,0.5693,-0.1040,0.8945,-28.56,0.55,-4.70,-1.46,0.78,0.00
0.057660,0.5850,-0.1299,0.9429,-30.82,1.77,-10.25,-1.46,0.78,0.00
0.057660,0.6289,-0.1440,0.9912,-29.66,-0.37,-13.55,-1.46,0.78,0.00
0.117842,0.6323,-0.2017,1.0132,-24.72,-6.96,-16.48,-1.46,0.78,0.00
0.117842,0.6650,-0.1934,0.9941,-17.46,-13.92,-18.68,-1.46,0.78,0.00
0.147772,0.6802,-0.1753,0.9536,-12.45,-19.84,-19.84,-1.46,0.78,0.00
0.147772,0.6826,-0.1689,0.9390,-12.39,-27.04,-23.25,-1.46,0.78,0.00
0.177769,0.6655,-0.1567,0.9243,-13.85,-34.85,-25.94,-1.46,0.78,0.00
0.177769,0.6353,-0.1104,0.8828,-17.52,-44.19,-24.60,-1.46,0.78,0.00
0.238226,0.5918,-0.0664,0.8252,-20.81,-51.03,-21.24,-1.46,0.78,0.00
0.238226,0.5439,-0.0586,0.7681,-20.87,-56.15,-16.66,-1.46,0.78,0.00
0.267739,0.5630,-0.0405,0.6836,-17.64,-53.53,-15.75,-1.46,0.78,0.00
0.267739,0.5371,0.0215,0.5835,-19.29,-45.29,-17.40,-1.46,0.78,0.00
0.297801,0.5186,0.1074,0.5312,-31.25,-34.55,-20.51,-1.46,0.78,0.00
0.297801,0.4683,0.1104,0.5811,-41.75,-24.96,-20.57,-1.46,0.78,0.00
0.357810,0.4287,0.0820,0.6641,-40.28,-21.97,-14.83,-1.46,0.78,0.00
0.357810,0.0562,-0.0938,0.8052,-19.29,-31.80,8.73,-1.46,0.78,0.00
0.387708,0.4736,-0.1436,0.7031,-8.12,-18.25,-10.01,-1.46,0.78,0.00
0.387708,0.4468,-0.1235,0.7725,-1.28,-12.27,-19.59,-1.46,0.78,0.00
0.418846,0.3940,-0.0464,0.8110,31.13,-13.43,-11.72,-1.46,0.78,0.00
0.418846,0.5918,0.0410,0.7158,45.41,-7.93,-9.83,-1.46,0.78,0.00
0.477880,0.6055,0.1206,0.6699,40.89,7.39,-14.22,-1.46,0.78,0.00
0.477880,0.4980,0.1226,0.7144,28.81,12.57,3.05,-1.46,0.78,0.00
0.507870,0.5464,0.0151,0.7529,17.88,8.85,19.90,-1.46,0.78,0.00
0.507870,0.7305,-0.2432,0.7822,20.08,7.81,1.28,-1.46,0.78,0.00
0.538018,0.6470,-0.2280,0.7261,19.53,8.91,-17.94,-1.46,0.78,0.00
0.538018,0.6792,-0.2500,0.7393,14.47,16.05,-23.62,-1.46,0.78,0.00
0.598110,0.7119,-0.0645,0.7729,17.82,17.76,-22.52,-1.46,0.78,0.00
0.598110,0.6548,0.0249,0.8022,18.43,14.95,-17.09,-1.46,0.78,0.00
0.630391,0.6821,0.0459,0.8315,15.44,10.25,-10.86,-1.46,0.78,0.00
0.630391,0.5630,0.0400,0.8325,10.25,12.15,-7.20,-1.46,0.78,0.00
0.657885,0.6948,0.0361,0.8184,3.30,-0.31,-5.19,-1.46,0.78,0.00
0.657885,0.6992,0.0576,0.8330,-3.60,-2.99,-0.06,-1.46,0.78,0.00
0.717846,0.7026,0.0874,0.8516,-13.61,-9.09,4.33,-1.46,0.78,0.00
0.717846,0.7041,0.0122,0.8081,-24.35,-10.13,8.00,-1.46,0.78,0.00
0.747781,0.7129,-0.0557,0.7778,-28.32,-1.34,7.69,-1.46,0.78,0.00
0.747781,0.5981,-0.1079,0.7690,-27.53,-9.03,7.57,-1.46,0.78,0.00
0.777796,0.5688,-0.1250,0.7920,-17.33,-9.52,4.52,-1.46,0.78,0.00
0.777796,0.5156,-0.1348,0.7407,-7.81,-23.99,2.87,-1.46,0.78,0.00
0.838059,0.6343,-0.0928,0.6978,-0.18,-24.72,3.23,-1.46,0.78,0.00
0.838059,0.7021,-0.0308,0.6440,1.83,-14.47,3.91,-1.46,0.78,0.00
0.868691,0.7935,-0.0332,0.6235,0.55,-10.38,0.49,-1.46,0.78,0.00
0.868691,0.7031,-0.0415,0.6816,4.46,15.56,-0.12,-1.46,0.78,0.00
0.897741,0.6558,0.0029,0.7686,3.60,22.40,-0.79,-1.46,0.78,0.00
0.897741,0.7856,0.0381,0.9053,-2.26,39.43,0.92,-1.46,0.78,0.00
0.957851,0.2383,0.0054,0.8774,-10.19,33.57,-8.73,-1.46,0.78,0.00
0.957851,0.6113,-0.0874,0.6846,-10.80,6.35,-16.97,-1.46,0.78,0.00
0.987779,0.6846,-0.0557,0.6357,-3.36,16.91,-3.78,-1.46,0.78,0.00
0.987779,0.6494,-0.0356,0.7520,-2.81,19.96,-3.66,-1.46,0.78,0.00
1.047741,0.6396,-0.0576,0.7168,-2.56,26.67,-3.42,-1.46,0.78,0.00
1.047741,0.6108,-0.0435,0.7539,-2.69,33.02,-3.54,-1.46,0.78,0.00
1.077804,0.5894,-0.0552,0.7520,-3.48,35.28,-4.70,-1.46,0.78,0.00
1.077804,0.5801,-0.0576,0.7588,-2.44,37.17,-5.86,-1.46,0.78,0.00
1.107904,0.5767,-0.0513,0.7930,-0.73,36.62,-5.86,-1.46,0.78,0.00
1.107904,0.5454,-0.0513,0.8413,1.65,34.18,-5.74,-1.46,0.78,0.00
1.167721,0.5537,-0.0430,0.8677,3.30,26.92,-5.31,-1.46,0.78,0.00
1.167721,0.5698,-0.0176,0.8735,6.41,23.44,-4.64,-1.46,0.78,0.00
1.197757,0.5728,-0.0186,0.8652,7.51,23.44,-4.33,-1.46,0.78,0.00
1.197757,0.5532,-0.0210,0.8511,6.29,26.43,-3.78,-1.46,0.78,0.00
1.227806,0.5176,-0.0083,0.8555,3.85,27.89,-4.09,-1.46,0.78,0.00
1.227806,0.4751,0.0244,0.8950,-2.01,19.17,-3.72,-1.46,0.78,0.00
1.288014,0.5078,0.0269,0.8740,-5.00,13.61,-4.03,-1.46,0.78,0.00
1.288014,0.5010,0.0024,0.8735,-6.47,11.72,-5.00,-1.46,0.78,0.00
1.317768,0.5010,-0.0249,0.8628,-6.59,12.15,-6.84,-1.46,0.78,0.00
1.317768,0.4902,-0.0405,0.8457,-5.98,15.87,-7.45,-1.46,0.78,0.00
1.347828,0.4419,-0.0537,0.8809,-4.58,15.38,-7.02,-1.46,0.78,0.00
1.347828,0.4526,-0.0259,0.9150,-3.17,10.01,-6.59,-1.46,0.78,0.00
1.407820,0.4536,-0.0469,0.9062,-1.10,5.49,-5.92,-1.46,0.78,0.00
1.407820,0.4604,-0.0713,0.8877,2.08,3.30,-5.62,-1.46,0.78,0.00
1.439134,0.4639,-0.0762,0.8618,4.64,6.23,-4.58,-1.46,0.78,0.00
1.439134,0.4600,-0.0674,0.8784,7.63,7.45,-3.85,-1.46,0.78,0.00
1.467747,0.4702,-0.0356,0.8965,11.29,6.96,-3.66,-1.46,0.78,0.00
1.467747,0.4829,0.0117,0.8584,13.73,9.16,-3.54,-1.46,0.78,0.00
1.527792,0.4790,0.0444,0.8291,11.60,14.04,-1.89,-1.46,0.78,0.00
1.527792,0.4585,0.0322,0.8491,5.92,18.68,-0.61,-1.46,0.78,0.00
1.557844,0.4556,0.0088,0.8955,3.05,19.84,-1.28,-1.46,0.78,0.00
1.557844,0.4497,-0.0039,0.9141,3.78,20.02,-2.50,-1.46,0.78,0.00
1.588098,0.4351,-0.0195,0.9277,5.37,17.27,-2.20,-1.46,0.78,0.00
1.588098,0.4497,-0.0791,0.9683,12.39,15.26,-3.78,-1.46,0.78,0.00
1.648979,0.4355,-0.0366,0.9092,20.32,16.11,-6.16,-1.46,0.78,0.00
1.648979,0.4409,0.0366,0.9028,19.65,19.78,-5.31,-1.46,0.78,0.00
1.679695,0.4316,0.0513,0.9355,21.30,23.38,-8.12,-1.46,0.78,0.00
1.679695,0.3301,0.1455,0.9067,12.39,16.91,-4.76,-1.46,0.78,0.00
1.709385,0.3633,0.0898,0.9092,-1.59,7.57,1.65,-1.46,0.78,0.00
1.709385,0.4116,0.0488,0.9053,-7.45,2.56,-1.34,-1.46,0.78,0.00
1.767734,0.4316,0.0640,0.8911,-8.24,4.27,-4.58,-1.46,0.78,0.00
1.767734,0.4565,0.0972,0.9038,-7.32,6.10,-5.68,-1.46,0.78,0.00
1.798694,0.4907,0.1108,0.8848,-3.48,12.27,-8.85,-1.46,0.78,0.00
1.798694,0.4209,0.0684,0.8784,0.85,17.70,-10.50,-1.46,0.78,0.00
1.827806,0.3770,0.0410,0.9146,4.03,16.05,-8.30,-1.46,0.78,0.00
1.827806,0.3818,0.0356,0.9072,8.24,11.78,-7.02,-1.46,0.78,0.00
1.888317,0.3906,0.0723,0.9102,10.13,7.26,-6.71,-1.46,0.78,0.00
1.888317,0.3921,0.1021,0.9033,10.25,4.76,-3.54,-1.46,0.78,0.00
1.917753,0.3857,0.0996,0.8926,8.67,1.46,5.00,-1.46,0.78,0.00
1.917753,0.4087,0.0288,0.8560,5.98,-1.46,12.27,-1.46,0.78,0.00
1.947728,0.4736,0.0015,0.8340,1.95,0.18,8.42,-1.46,0.78,0.00
1.947728,0.4644,0.0244,0.8545,-2.69,5.43,0.92,-1.46,0.78,0.00
2.007820,0.4282,0.0425,0.8706,-5.80,5.86,0.43,-1.46,0.78,0.00
2.007820,0.4072,0.0503,0.9043,-4.88,6.53,6.29,-1.46,0.78,0.00
2.038420,0.3877,0.0107,0.9204,-1.77,4.76,14.83,-1.46,0.78,0.00
2.038420,0.4058,-0.0352,0.8955,0.61,2.75,17.64,-1.46,0.78,0.00
2.067758,0.4492,-0.0088,0.9048,-2.62,4.82,12.39,-1.46,0.78,0.00
2.067758,0.4180,-0.0005,0.9204,-8.36,5.49,9.03,-1.46,0.78,0.00
2.127821,0.4097,-0.0337,0.9502,-11.54,2.08,9.22,-1.46,0.78,0.00
2.127821,0.4438,-0.1123,0.9785,-6.77,0.67,6.23,-1.46,0.78,0.00
2.157847,0.3857,-0.1323,0.9365,4.88,1.22,1.10,-1.46,0.78,0.00
2.157847,0.4009,-0.0405,0.8979,5.49,-2.44,5.62,-1.46,0.78,0.00
2.188555,0.4463,-0.0283,0.9087,1.04,-0.73,2.32,-1.46,0.78,0.00
2.188555,0.4106,-0.0342,0.9023,-1.46,0.67,-2.01,-1.46,0.78,0.00
2.247779,0.3809,0.0029,0.9141,-5.62,-2.26,-1.46,-1.46,0.78,0.00
2.247779,0.3789,-0.0029,0.9204,-5.07,-3.48,1.10,-1.46,0.78,0.00
2.277778,0.4053,0.0015,0.9087,-2.20,-2.62,1.34,-1.46,0.78,0.00
2.277778,0.3647,-0.0088,0.9062,2.87,-1.40,3.42,-1.46,0.78,0.00
2.307862,0.4019,0.0005,0.9043,9.40,-1.28,5.07,-1.46,0.78,0.00
2.307862,0.4199,0.0459,0.8926,10.07,2.62,-0.06,-1.46,0.78,0.00
2.368792,0.3940,0.0981,0.9219,4.46,4.15,-2.32,-1.46,0.78,0.00
2.368792,0.3770,0.0635,0.9565,1.22,1.40,0.67,-1.46,0.78,0.00
2.397774,0.4780,0.0820,0.8843,-1.71,0.85,-2.87,-1.44,0.79,-44.81
2.397774,0.3677,-0.0376,0.9307,-6.10,2.69,-5.25,-1.56,0.85,-44.92
2.458857,0.4019,-0.0020,0.9360,-6.96,-0.31,-5.62,-1.68,0.85,-45.03
2.458857,0.3916,0.0039,0.9258,-7.39,-0.79,-4.52,-1.83,0.80,-45.13
2.488679,0.3818,-0.0024,0.9224,-7.26,-4.52,-2.87,-1.98,0.64,-45.21
2.488679,0.3921,-0.0117,0.9233,-6.84,-6.04,-2.50,-2.13,0.35,-45.26
2.517724,0.4009,-0.0044,0.9160,-6.96,-5.49,-2.20,-2.27,-0.02,-45.32
2.517724,0.4263,-0.0034,0.9072,-8.24,-3.42,-2.01,-2.42,-0.46,-45.38
2.577766,0.4141,-0.0327,0.9043,-8.06,0.00,-2.08,-2.58,-0.93,-45.45
2.577766,0.3906,-0.0317,0.8911,-4.58,-0.61,-2.08,-2.70,-1.49,-45.52
2.607818,0.3882,0.0078,0.9072,-2.01,-2.62,-2.44,-2.77,-2.18,-45.60
2.607818,0.3979,0.0327,0.9307,-2.44,-1.89,-2.08,-2.81,-2.96,-45.70
2.641168,0.3896,0.0181,0.9292,-2.62,-1.77,-1.53,-2.84,-3.81,-45.79
2.641168,0.4033,0.0146,0.9175,-2.20,-2.08,-1.46,-2.85,-4.72,-45.87
2.697751,0.4214,0.0117,0.9155,-2.20,-0.18,-2.08,-2.84,-5.67,-45.98
2.697751,0.4302,0.0068,0.9209,-2.50,2.14,-2.38,-2.82,-6.65,-46.11
2.727792,0.4224,-0.0137,0.9502,-1.46,3.05,-2.26,-2.79,-7.60,-46.24
2.727792,0.4004,-0.0156,0.9932,-0.37,0.06,-2.69,-2.74,-8.57,-46.39
2.757821,0.4062,-0.0205,0.9702,0.12,-3.60,-3.30,-2.68,-9.59,-46.55
2.757821,0.4282,-0.0161,0.9331,-0.61,-5.31,-4.58,-2.62,-10.62,-46.74
2.817745,0.4424,-0.0210,0.8794,-0.37,-5.43,-5.55,-2.58,-11.62,-46.94
2.817745,0.4741,-0.0161,0.8481,-0.06,-2.32,-6.35,-2.52,-12.56,-47.16
2.847773,0.4736,-0.0215,0.8271,-0.06,2.99,-7.08,-2.47,-13.39,-47.40
2.847773,0.4487,-0.0024,0.8560,0.00,3.54,-7.75,-2.41,-14.12,-47.64
2.877758,0.4482,0.0029,0.8848,-1.77,1.40,-7.93,-2.36,-14.84,-47.88
2.877758,0.4331,-0.0010,0.8901,-2.44,-0.55,-8.06,-2.33,-15.55,-48.11
2.967880,0.4478,0.0190,0.9033,-4.58,-4.09,-8.42,-2.32,-16.28,-48.36
2.967880,0.4580,0.0142,0.8887,-8.24,-3.36,-8.91,-2.36,-16.98,-48.61
2.970057,0.4590,-0.0166,0.8491,-8.24,-2.14,-9.34,-2.43,-17.61,-48.86
2.970057,0.4570,-0.0376,0.8447,-3.66,-1.89,-9.70,-2.45,-18.20,-49.13
2.997745,0.4424,-0.0186,0.8853,0.92,-3.78,-9.95,-2.38,-18.76,-49.38
2.997745,0.4302,-0.0269,0.8867,5.31,-10.93,-10.31,-2.21,-19.38,-49.65
3.057790,0.4346,-0.0195,0.8760,7.75,-16.11,-12.15,-1.97,-20.09,-49.93
3.057790,0.4409,0.0044,0.8638,7.93,-17.21,-13.55,-1.70,-20.82,-50.24
3.088990,0.4531,0.0332,0.8745,8.24,-22.16,-13.61,-1.40,-21.57,-50.57
3.088990,0.5132,0.0581,0.8325,5.74,-21.73,-11.05,-1.12,-22.36,-50.87
3.117768,0.5649,0.1074,0.8110,-0.43,-12.15,-10.01,-0.94,-23.03,-51.14
3.117768,0.5288,0.0996,0.8252,-6.90,-1.53,-9.03,-0.88,-23.46,-51.39
3.178095,0.4541,0.0435,0.7749,-1.40,1.65,-10.07,-0.83,-23.76,-51.64
3.178095,0.4819,0.0811,0.9087,1.04,2.14,-4.09,-0.69,-24.02,-51.82
3.207872,0.4600,0.0962,0.9604,2.14,0.61,-1.53,-1.42,0.79,-0.03
3.207872,0.4619,0.0942,0.9443,-2.32,2.69,1.53,-1.43,0.81,-0.03
3.239015,0.4307,0.0679,0.9180,-5.80,7.14,3.72,-1.50,0.88,0.02
3.239015,0.3984,0.0244,0.9087,-4.27,9.52,4.39,-1.59,0.98,0.11
3.298668,0.3804,0.0200,0.9165,-2.38,11.54,2.99,-1.64,1.07,0.18
3.298668,0.3711,0.0220,0.9473,-0.67,14.04,3.17,-1.63,1.13,0.24
3.327763,0.3604,0.0562,1.0103,1.16,14.16,4.52,-1.59,1.15,0.32
3.327763,0.3965,0.0366,1.0132,1.40,10.07,7.02,-1.52,1.04,0.44
3.357812,0.4404,0.0371,0.9941,0.98,9.22,6.23,-1.46,0.76,0.58
3.357812,0.4551,0.0361,0.9771,2.87,11.54,4.70,-1.37,0.38,0.68
3.417768,0.4292,0.0547,1.0117,6.04,12.21,4.46,-1.21,-0.09,0.77
3.417768,0.3984,0.0562,1.0508,7.26,12.15,4.88,-0.99,-0.65,0.86
3.448839,0.3730,0.0425,1.0781,6.04,9.77,5.13,-0.78,-1.32,0.97
3.448839,0.3354,0.0142,1.0972,3.97,2.93,3.97,-0.59,-2.13,1.06
3.477776,0.3535,0.0093,1.0796,2.75,-3.48,2.56,-0.45,-3.09,1.12
3.477776,0.4131,0.0396,1.0244,3.48,-3.97,1.53,-0.34,-4.13,1.15
3.539198,0.4204,0.0615,1.0005,7.45,0.49,1.10,-0.16,-5.13,1.17
3.539198,0.4023,0.0317,1.0195,12.51,2.75,0.98,0.11,-6.06,1.18
3.567763,0.3643,-0.0029,1.0376,16.17,2.87,1.83,0.47,-6.93,1.20
3.567763,0.3623,0.0093,1.0312,15.99,1.22,2.26,0.82,-7.78,1.23
3.597800,0.4111,0.0781,0.9937,13.12,6.10,3.23,1.12,-8.54,1.29
3.597800,0.4688,0.1157,0.9980,10.38,13.98,4.52,1.37,-9.15,1.37
3.657827,0.4370,0.0874,1.0498,9.22,18.43,5.49,1.58,-9.58,1.48
3.657827,0.3950,0.0742,1.0947,8.30,14.22,6.47,1.79,-9.98,1.61
3.689410,0.3970,0.0977,1.1274,4.52,9.83,6.53,1.94,-10.43,1.75
3.689410,0.4028,0.1235,1.0996,-0.37,9.64,6.29,1.99,-10.87,1.88
3.717790,0.3994,0.1074,1.0469,-3.17,8.36,6.53,1.98,-11.27,2.02
3.717790,0.3887,0.0337,0.9756,-2.32,9.83,6.90,1.94,-11.62,2.16
3.777917,0.3760,0.0220,0.9561,0.49,11.11,6.47,1.93,-11.91,2.30
3.777917,0.3672,0.0254,0.9731,2.69,10.25,6.65,1.97,-12.16,2.44
3.807846,0.3760,0.0269,0.9849,3.42,8.24,6.47,2.02,-12.41,2.59
3.807846,0.4043,0.0278,0.9746,2.26,7.26,5.43,2.07,-12.67,2.72
3.868818,0.4277,0.0400,0.9463,0.00,8.97,4.33,2.05,-12.89,2.82
3.868818,0.4097,0.0684,0.9443,-0.73,10.62,3.72,2.01,-13.06,2.92
3.897791,0.3633,0.0723,0.9209,3.60,7.26,3.78,2.02,-13.24,3.01
3.897791,0.3701,0.0859,0.9312,4.76,1.65,3.30,2.09,-13.50,3.08
3.927864,0.3804,0.1021,0.9185,-1.89,3.17,2.44,2.10,-13.76,3.14
3.927864,0.3833,0.1025,0.8667,-6.04,8.00,4.03,2.01,-13.96,3.21
3.987752,0.3486,0.0103,0.8291,0.06,14.16,5.80,1.93,-14.00,3.33
3.987752,0.3008,-0.0879,0.8350,13.43,10.01,6.77,2.05,-14.03,3.47
4.017757,0.2949,-0.0527,0.8477,19.65,4.03,6.47,2.36,-14.08,3.62
4.017757,0.3232,0.1074,0.8955,11.05,7.93,5.07,2.62,-14.22,3.75
4.047747,0.3584,0.2256,0.9209,-1.83,20.14,6.41,2.64,-14.16,3.89
4.047747,0.2803,0.0972,0.8911,-2.99,25.82,6.77,2.53,-13.90,4.06
4.107706,0.2251,-0.0635,0.8984,6.35,22.58,4.15,2.54,-13.61,4.21
4.107706,0.1929,0.0000,0.9629,6.96,15.93,1.10,2.67,-13.40,4.29
4.138037,0.2739,0.1060,0.9824,-2.14,11.96,-0.37,2.70,-13.30,4.31
4.138037,0.2729,0.1333,0.9795,-6.53,15.26,0.73,2.56,-13.17,4.33
4.167700,0.2061,0.0200,1.0166,1.28,8.61,0.00,2.49,-13.04,4.37
4.167700,0.1831,-0.0259,1.0005,7.14,-0.92,-1.89,2.59,-13.07,4.35
4.227910,0.2236,0.0264,0.9067,3.78,-7.75,-3.11,2.71,-13.26,4.29
4.227910,0.3003,0.1323,0.8188,-3.91,2.38,-0.85,2.69,-13.41,4.24
4.257752,0.2314,0.0171,0.8247,-3.72,4.58,0.24,2.58,-13.40,4.25
4.257752,0.1479,-0.1011,0.8486,4.09,-3.23,-2.69,2.57,-13.45,4.23
4.289910,0.1978,0.0195,0.8569,8.24,-11.29,-4.46,2.70,-13.68,4.13
4.289910,0.2686,0.0767,0.7915,8.12,-7.51,-2.38,2.86,-13.92,4.05
4.347751,0.2759,0.0757,0.7446,6.65,1.65,-3.36,2.98,-14.05,3.99
4.347751,0.2192,0.0410,0.7632,9.34,10.38,-5.00,3.13,-13.96,3.91
4.377985,0.2139,-0.0112,0.7622,13.31,13.98,-5.37,3.36,-13.77,3.82
4.377985,0.1826,0.0059,0.8076,12.39,17.64,-6.53,3.63,-13.48,3.74
4.407759,0.2119,0.0981,0.8613,5.55,19.41,-6.84,3.80,-13.15,3.63
4.407759,0.2266,0.1157,0.8438,0.67,20.51,-7.08,3.85,-12.78,3.53
4.468052,0.2046,0.0566,0.8232,4.88,19.17,-8.36,3.89,-12.41,3.41
4.468052,0.1851,0.0586,0.8315,7.81,16.66,-10.86,4.05,-12.10,3.24
4.497811,0.2285,0.1304,0.8413,4.88,19.47,-10.93,4.20,-11.75,3.05
4.497811,0.2559,0.1504,0.8130,0.18,27.59,-7.87,4.26,-11.30,2.91
4.528782,0.2188,0.0869,0.8564,-1.65,30.46,-5.55,4.25,-10.73,2.83
4.528782,0.1729,0.0400,0.8682,0.79,28.08,-4.76,4.23,-10.18,2.79
4.587783,0.1738,0.0684,0.9146,3.05,27.83,-5.86,4.27,-9.65,2.75
4.587783,0.2075,0.1470,0.9702,1.34,25.94,-5.74,4.32,-9.15,2.68
4.617772,0.2168,0.1431,0.9673,-4.33,26.37,-4.21,4.29,-8.65,2.63
4.617772,0.1797,0.1055,0.9038,-7.87,28.02,-2.99,4.16,-8.14,2.61
4.647772,0.1616,0.0752,0.8916,-8.24,29.17,-2.93,3.99,-7.60,2.61
4.647772,0.1406,0.0244,0.9360,-9.64,22.64,-4.82,3.81,-7.11,2.58
4.711448,0.1309,0.0493,1.0005,-6.47,22.09,-3.72,3.64,-6.69,2.53
4.711448,0.1245,0.0630,1.0312,-2.62,16.72,-2.87,3.55,-6.33,2.50
4.738091,0.1675,0.0947,1.0278,-2.69,15.20,-2.26,3.50,-6.04,2.48
4.738091,0.1504,0.0723,1.0024,-5.19,14.47,-2.50,3.41,-5.77,2.46
4.767820,0.1465,0.1089,0.9600,-8.48,15.20,-3.48,3.27,-5.50,2.42
4.767820,0.0933,0.0562,0.9346,-12.57,11.96,-6.10,3.07,-5.22,2.36
4.827849,0.1479,0.1328,0.9766,-20.69,9.16,-7.63,2.73,-5.05,2.21
4.827849,0.1489,0.1299,1.0010,-23.74,8.12,-3.60,2.28,-4.88,2.11
4.857793,0.0439,0.0391,0.9614,-25.51,-2.26,4.39,1.80,-4.83,2.13
4.857793,-0.0034,-0.0967,0.9668,-27.83,-13.67,13.73,1.22,-5.01,2.30
4.887769,0.1230,-0.1040,0.9180,-30.94,-18.31,11.72,0.61,-5.39,2.55
4.887769,0.1152,-0.0850,0.8945,-30.03,-18.01,13.73,-0.04,-5.79,2.80
4.947784,0.1860,-0.0337,0.8672,-27.53,-11.47,12.88,-0.66,-6.14,3.07
4.947784,0.1152,-0.0405,0.9619,-20.57,-1.71,11.84,-1.22,-6.27,3.31
4.977760,0.0952,0.0200,0.9810,-4.46,-0.79,13.67,-1.49,-6.31,3.57
4.977760,0.0581,0.0869,0.9307,2.26,0.00,20.20,-1.55,-6.33,3.89
5.007924,-0.0005,0.0288,0.8936,1.10,-2.14,29.30,-1.59,-6.36,4.40
5.007924,0.1372,-0.1270,0.8511,-14.71,5.25,16.42,-1.82,-6.37,4.89
5.067768,0.1025,-0.0493,0.8877,-14.04,15.50,-0.18,-2.14,-6.15,5.02
5.067768,0.1323,0.0264,0.9717,-9.03,27.47,-5.80,-2.40,-5.71,4.94
5.097762,0.1606,0.0469,0.9785,9.70,36.25,-9.34,-2.38,-5.09,4.77
5.097762,0.1284,0.0122,0.9731,25.15,47.97,-12.51,-2.00,-4.25,4.54
5.127924,0.0151,0.0146,0.9746,26.37,51.21,-14.16,-1.43,-3.24,4.25
5.127924,0.1553,0.0801,1.0537,11.60,52.67,-11.11,-1.07,-2.25,4.00
5.187754,0.0435,0.1021,1.0791,5.49,47.24,-6.90,-0.90,-1.22,3.83
5.187754,0.0298,0.0425,1.0264,1.83,29.54,-2.81,-0.83,-0.50,3.74
5.217775,-0.3008,0.2168,1.0903,3.30,19.10,-3.36,-0.70,-0.02,3.86
5.217775,-0.0713,0.0225,0.9229,4.03,-2.69,-9.52,-0.55,0.05,3.86
5.277861,0.2085,-0.0347,0.9888,6.59,6.53,-2.44,-0.36,0.04,3.87
5.277861,0.1484,0.0757,1.0615,6.84,12.57,3.36,-0.15,0.25,4.02
5.307913,-0.0400,0.1006,1.1367,4.33,8.97,0.37,0.05,0.47,4.20
5.307913,0.0332,0.0981,1.2109,-4.33,11.60,-1.53,0.12,0.66,4.33
5.338076,0.0039,0.0146,1.2192,-15.20,16.60,-5.43,-0.03,0.94,4.39
5.338076,-0.1289,0.0010,1.0933,-22.71,17.88,-12.21,-0.35,1.29,4.37
5.397771,-0.1763,-0.0361,1.0430,-21.55,9.83,-22.58,-0.75,1.57,4.14
5.397771,-0.1060,-0.0371,1.0146,-18.68,1.65,-29.85,-1.10,1.68,3.73
5.427865,0.1816,-0.0635,0.9424,-16.42,5.00,-26.61,-1.42,1.72,3.27
5.427865,0.3584,-0.0684,0.9272,-14.89,22.28,-3.97,-1.69,1.98,3.09
5.457945,0.0186,-0.0234,0.8906,-10.93,28.81,-0.55,-1.92,2.50,3.19
5.457945,0.0225,-0.0850,0.8926,-3.48,26.00,2.62,-2.02,3.05,3.33
5.517749,0.0278,-0.0977,0.9316,3.66,25.45,4.33,-1.96,3.53,3.52
5.517749,0.0278,-0.0303,1.0137,6.53,34.61,6.10,-1.81,4.12,3.74
5.547810,0.0708,-0.0073,1.0688,5.68,47.61,6.23,-1.64,4.92,3.99
5.547810,0.0835,-0.0508,1.0308,8.61,69.64,6.41,-1.47,6.08,4.24
5.577910,-0.1860,0.0991,1.0825,4.21,65.80,4.94,-1.27,7.48,4.48
5.577910,-0.2744,0.0771,0.9287,2.87,45.04,5.49,-1.17,8.56,4.72
5.637838,-0.2109,0.0781,0.9434,4.21,28.32,2.50,-1.06,9.25,4.91
5.637838,-0.1821,0.0088,0.9438,8.73,20.08,2.99,-0.90,9.71,5.10
5.668194,-0.1758,0.0493,0.9863,11.78,14.89,1.83,-0.65,10.05,5.27
5.668194,-0.1313,0.0474,1.0586,11.23,6.47,2.75,-0.38,10.24,5.44
5.698125,-0.0850,0.0400,1.0474,10.01,8.36,4.03,-0.13,10.35,5.64
5.698125,-0.1621,0.0112,1.0342,8.42,5.55,3.91,0.09,10.48,5.84
5.757791,-0.1777,0.0571,1.0151,7.39,2.93,5.07,0.29,10.54,6.06
5.757791,-0.1924,0.0381,1.0171,7.02,2.93,5.19,0.48,10.59,6.29
5.787797,-0.1304,0.0454,1.0190,6.53,6.77,6.41,0.66,10.66,6.53
5.787797,-0.1226,0.0532,1.0181,7.20,5.62,8.61,0.84,10.77,6.81
5.817815,-0.1304,0.0630,0.9966,9.40,5.37,8.91,1.06,10.86,7.11
5.817815,-0.1421,0.1011,0.9712,11.84,6.53,6.29,1.33,10.95,7.39
5.878083,-0.1484,0.0957,1.0508,11.60,8.06,1.71,1.61,11.09,7.60
5.878083,-0.1118,0.1152,1.1011,7.69,8.85,-2.01,1.82,11.26,7.72
5.907790,-0.0952,0.0962,1.1118,2.08,4.46,-5.00,1.93,11.38,7.77
5.907790,-0.1104,0.0513,1.0947,-3.11,-4.94,-5.49,1.91,11.36,7.77
5.938071,-0.1025,0.0137,1.0547,-5.62,-11.96,-7.02,1.81,11.17,7.75
5.938071,-0.1113,0.0459,1.0186,-5.92,-14.83,-7.26,1.68,10.89,7.70
5.997748,-0.1362,0.0527,1.0244,-5.80,-18.01,-6.35,1.55,10.54,7.66
5.997748,-0.1357,0.0239,1.0732,-2.62,-18.92,-5.07,1.45,10.16,7.64
6.028006,-0.1211,0.0122,1.1655,2.08,-19.71,-4.64,1.45,9.76,7.64
6.028006,-0.0811,0.0303,1.2568,1.46,-26.61,-2.32,1.49,9.29,7.66
6.057818,-0.0649,0.0498,1.3130,-5.13,-33.14,0.37,1.46,8.66,7.72
6.057818,-0.0479,0.0547,1.3481,-9.89,-40.59,1.83,1.31,7.90,7.82
6.117814,-0.0215,0.0249,1.3618,-12.27,-50.84,2.14,1.09,6.97,7.93
6.117814,0.0229,-0.0098,1.3560,-13.18,-62.01,1.34,0.85,5.81,8.02
6.147746,0.0601,-0.0200,1.4087,-14.47,-70.37,1.40,0.58,4.45,8.10
6.147746,0.0439,-0.0522,1.4424,-15.81,-85.88,1.40,0.28,2.86,8.19
6.177817,0.0576,-0.0278,1.4409,-17.64,-100.40,0.55,-0.05,0.96,8.26
6.177817,0.0693,-0.0195,1.4146,-21.67,-113.59,-0.06,-0.44,-1.21,8.33
6.238054,0.0972,-0.0142,1.3286,-22.28,-120.85,-1.04,-0.88,-3.60,8.39
6.238054,0.1113,-0.0464,1.3003,-16.97,-122.38,-3.85,-1.27,-6.07,8.42
6.267783,0.1025,-0.0488,1.3496,-8.79,-129.21,-8.06,-1.50,-8.60,8.38
6.267783,0.0967,-0.0435,1.3770,-3.36,-145.02,-11.72,-1.58,-11.35,8.26
6.297736,0.0835,-0.0308,1.3462,0.92,-164.86,-13.37,-1.54,-14.46,8.07
6.297736,0.1304,0.0205,1.2520,-0.67,-181.21,-12.82,-1.44,-17.96,7.85
6.357914,0.1890,0.0493,1.0967,-9.16,-184.08,-10.56,-1.44,-21.67,7.51
6.357914,0.1948,-0.0210,0.9390,-14.10,-176.15,-9.03,-1.57,-25.29,7.19
6.387852,0.1953,-0.0542,0.9077,-12.57,-161.13,-10.68,-1.73,-28.66,6.86
6.387852,0.1968,-0.0190,0.9819,-13.67,-155.21,-10.50,-1.87,-31.79,6.50
6.417738,0.1768,0.0112,1.0137,-17.03,-170.72,-7.87,-2.10,-35.01,6.21
6.417738,0.2114,-0.0356,0.9106,-14.59,-193.48,-4.09,-2.40,-38.67,6.03
6.477919,0.3057,-0.0884,0.7109,-7.26,-200.50,-2.62,-2.65,-42.64,5.94
6.477919,0.3740,-0.0444,0.5996,-3.36,-190.73,-0.67,-2.82,-46.53,5.92
6.507813,0.4028,-0.0137,0.5225,-6.10,-177.25,1.16,-3.05,-50.17,5.98
6.507813,0.4038,-0.0405,0.4395,-5.92,-173.95,0.61,-3.38,-53.64,6.08
6.538037,0.4678,-0.0327,0.3784,-1.83,-171.57,0.37,-3.69,-57.07,6.23
6.538037,0.5186,-0.0474,0.3433,1.40,-168.21,0.12,-3.96,-60.44,6.42
6.597781,0.5806,-0.0342,0.3105,5.13,-162.17,-0.31,-4.21,-63.71,6.65
6.597781,0.6221,-0.0166,0.2705,7.75,-157.35,-1.53,-4.43,-66.87,6.91
6.630573,0.6606,-0.0093,0.2212,6.71,-151.25,-2.81,-4.64,-69.93,7.16
6.630573,0.7114,-0.0107,0.1865,5.43,-142.21,-3.05,-4.90,-72.84,7.44
6.687758,0.7495,-0.0259,0.1694,3.23,-134.95,-2.20,-5.31,-75.59,7.83
6.687758,0.7642,-0.0469,0.1069,0.24,-130.80,-0.98,-6.06,-78.21,8.51
6.717767,0.7729,-0.0605,-0.0059,-2.87,-125.06,-0.06,-7.48,-80.74,9.80
6.717767,0.7715,-0.0791,-0.1079,-3.72,-117.00,-0.67,-9.96,-83.12,12.11
6.747947,0.7822,-0.0825,-0.2388,-2.93,-107.18,-2.01,-14.62,-85.31,16.61
6.747947,0.7710,-0.0796,-0.3916,-0.31,-91.06,-3.23,-26.32,-87.20,28.16
6.808005,0.7612,-0.0605,-0.4839,3.17,-71.90,-4.21,-76.40,-88.41,78.17
6.808005,0.7749,-0.0552,-0.5049,5.92,-49.44,-5.31,-146.34,-88.01,148.10
6.838112,0.8052,-0.0239,-0.4883,6.10,-26.00,-5.86,-162.45,-87.38,164.23
6.838112,0.7949,-0.0137,-0.4473,4.76,-3.48,-5.98,-167.69,-87.14,169.46
6.867761,0.8052,0.0000,-0.4312,2.50,16.36,-4.94,-169.70,-87.28,171.43
6.867761,0.8062,-0.0024,-0.3936,-0.49,37.29,-2.44,-167.76,-87.82,169.40
6.927758,0.8086,0.0005,-0.3477,-4.58,54.81,0.12,-145.65,-88.67,147.11
6.927758,0.8247,-0.0083,-0.3086,-5.68,72.94,2.14,-24.92,-88.32,26.16
6.958218,0.7944,-0.0352,-0.2290,-2.99,86.00,1.59,-11.11,-86.78,12.16
6.958218,0.7544,-0.0479,-0.1650,2.62,89.54,-0.31,-7.41,-85.05,8.33
6.988170,0.7881,-0.0430,-0.1577,8.00,96.19,-2.50,-5.33,-83.23,6.25
6.988170,0.7744,-0.0400,-0.1177,12.45,106.26,-5.62,-3.69,-81.24,4.69
7.047751,0.7651,-0.0347,-0.0122,17.09,112.55,-9.03,-2.15,-79.07,3.34
7.047751,0.7959,0.0234,0.0962,13.85,116.64,-8.61,-0.96,-76.82,2.34
7.078496,0.7974,0.0459,0.1362,4.58,122.56,-4.64,-0.40,-74.45,1.85
7.078496,0.7979,0.0122,0.1685,-2.75,134.46,-0.24,-0.44,-71.93,1.79
7.108505,0.7275,0.0015,0.2720,-5.00,144.41,0.92,-0.73,-69.13,1.88
7.108505,0.6826,0.0063,0.3394,-3.60,140.26,0.92,-0.97,-66.31,1.94
7.168441,0.6670,0.0093,0.3081,-0.85,135.74,0.85,-1.14,-63.59,1.96
7.168441,0.6655,-0.0171,0.2876,6.23,145.26,-2.32,-1.13,-60.83,1.89
7.198930,0.6104,-0.0205,0.4199,15.20,160.10,-8.18,-0.79,-57.79,1.63
7.198930,0.5503,0.0068,0.5732,21.91,161.80,-11.11,-0.19,-54.56,1.27
7.227494,0.5361,0.0381,0.6187,21.91,147.58,-8.30,0.40,-51.48,0.98
7.227494,0.5640,0.0088,0.5962,20.26,147.28,-5.19,0.82,-48.60,0.86
7.287491,0.4600,-0.0161,0.7129,21.55,158.87,-8.36,1.22,-45.53,0.76
7.287491,0.4399,0.0605,0.8398,18.68,161.93,-11.41,1.66,-42.32,0.61
7.317542,0.4678,0.1323,0.8965,10.25,162.90,-9.03,1.97,-39.09,0.48
7.317542,0.4194,0.1353,0.9741,-0.67,165.83,-5.74,2.00,-35.80,0.44
7.347427,0.3730,0.0962,1.0396,-4.39,161.56,-3.66,1.85,-32.53,0.45
7.347427,0.3467,0.0312,1.0752,1.28,153.99,-3.60,1.74,-29.39,0.49
7.408629,0.3208,0.0293,1.1191,4.88,144.96,-4.70,1.80,-26.41,0.48
7.408629,0.2979,0.0361,1.0854,5.25,129.76,-3.91,2.08,-23.73,0.69
7.437468,0.2476,0.0000,1.0020,9.22,118.29,-3.54,2.20,-21.29,0.90
7.437468,0.2109,0.0322,1.0078,12.02,118.90,-5.55,2.41,-18.91,1.05
7.467498,0.1987,0.0742,1.0654,9.52,121.28,-6.29,2.62,-16.51,1.22
7.467498,0.1675,0.0908,1.0957,2.50,119.51,-4.88,2.72,-14.10,1.42
7.527897,0.1558,0.0811,1.0273,-2.69,116.64,-3.11,2.69,-11.75,1.61
7.527897,0.0508,-0.0112,0.9844,2.44,123.47,-3.23,2.64,-9.34,1.85
7.558781,-0.0425,-0.0361,1.0527,13.73,124.94,-7.45,2.80,-6.86,2.04
7.558781,-0.0488,0.0977,1.2358,16.60,123.11,-11.23,3.13,-4.35,2.15
7.594573,-0.0229,0.2007,1.3096,7.75,111.82,-8.91,3.38,-1.98,2.25
7.594573,-0.0352,0.1929,1.2397,-2.62,99.55,-6.16,3.42,0.13,2.40
7.647711,-0.0283,0.1631,1.1597,-9.34,97.78,-4.82,3.28,2.07,2.57
7.647711,-0.0874,0.0571,1.1660,-9.34,100.65,-5.55,3.09,4.08,2.74
7.677534,-0.1235,0.0049,1.1997,-3.17,94.12,-6.77,2.96,6.04,2.87
7.677534,-0.1113,0.0269,1.2412,3.05,82.09,-5.80,2.97,7.81,2.98
7.709857,-0.0669,0.0850,1.2681,5.43,73.55,-2.62,3.06,9.36,3.13
7.709857,-0.0767,0.0811,1.2886,4.52,67.08,1.28,3.18,10.76,3.33
7.767501,-0.0859,0.0811,1.2993,3.48,60.97,4.64,3.29,12.02,3.61
7.767501,-0.1738,0.0166,1.3306,5.13,57.07,4.33,3.41,13.20,3.92
7.797833,-0.2842,-0.0146,1.3267,11.54,44.01,-1.95,3.60,14.22,4.15
7.797833,-0.2832,0.0327,1.3081,16.78,22.77,-8.73,3.88,14.88,4.19
7.827536,-0.2148,0.1147,1.2485,16.11,5.19,-10.07,4.17,15.16,4.11
7.827536,-0.1855,0.1392,1.1582,12.02,-5.86,-8.73,4.40,15.15,4.02
7.887490,-0.1655,0.1416,1.0957,6.84,-8.00,-6.96,4.54,15.01,3.95
7.887490,-0.1738,0.1357,1.0557,1.95,-10.86,-5.25,4.58,14.84,3.91
7.917467,-0.1797,0.1201,1.0142,-0.55,-14.04,-3.05,4.56,14.59,3.91
7.917467,-0.1846,0.1167,1.0078,-1.53,-16.42,-1.65,4.52,14.28,3.93
7.947506,-0.1738,0.1250,1.0498,-2.75,-17.15,-0.85,4.45,13.95,3.98
7.947506,-0.1655,0.1182,1.1279,-4.03,-21.55,0.00,4.37,13.56,4.03
8.008203,-0.1426,0.1221,1.2168,-7.08,-28.38,1.10,4.25,13.06,4.10
8.008203,-0.1030,0.1323,1.2686,-11.96,-35.46,2.26,4.05,12.40,4.17
8.037463,-0.0977,0.1294,1.3184,-15.44,-41.38,1.65,3.76,11.63,4.25
8.037463,-0.1543,0.1147,1.3975,-14.71,-53.53,-1.71,3.43,10.68,4.27
8.097925,-0.1333,0.1221,1.4043,-11.66,-73.55,-5.74,3.14,9.41,4.19
8.097925,-0.0732,0.1235,1.4014,-13.98,-84.23,-5.74,2.86,7.80,4.04
8.128739,-0.0742,0.0542,1.4355,-20.87,-87.40,-4.21,2.48,6.09,3.91
8.128739,-0.0781,0.0005,1.4170,-21.91,-99.55,-2.69,2.02,4.23,3.83
8.159312,-0.0464,-0.0220,1.3936,-14.28,-111.15,-0.67,1.64,2.11,3.77
8.159312,-0.0244,-0.0015,1.3623,-6.10,-128.48,2.62,1.44,-0.29,3.77
8.217839,-0.0015,0.0156,1.2993,-2.32,-143.74,5.37,1.37,-3.04,3.83
8.217839,0.0317,0.0249,1.1914,-1.53,-148.50,7.57,1.32,-6.00,3.92
8.248243,0.0435,0.0088,1.1152,0.61,-144.29,7.75,1.31,-8.94,4.04
8.248243,0.0566,-0.0015,1.1128,1.71,-141.17,5.92,1.33,-11.80,4.13
8.278130,0.0601,0.0229,1.1465,-1.10,-141.97,4.39,1.35,-14.62,4.18
8.278130,0.0894,0.0410,1.1226,-5.92,-152.65,4.03,1.29,-17.58,4.20
8.337820,0.1240,0.0161,1.0552,-7.63,-157.35,3.30,1.17,-20.69,4.21
8.337820,0.1714,0.0161,0.9863,-6.59,-155.09,1.71,1.07,-23.81,3.98
8.367886,0.2183,0.0312,0.9292,-5.62,-152.40,1.34,1.01,-26.89,3.76
8.367886,0.2490,0.0381,0.8779,-6.35,-151.06,1.59,0.93,-29.90,3.55
8.398145,0.2715,0.0332,0.8545,-8.85,-148.93,2.69,0.83,-32.90,3.34
8.398145,0.2900,0.0405,0.8862,-13.37,-151.43,2.75,0.64,-35.89,3.15
8.457635,0.3643,0.0391,0.8394,-16.24,-155.27,4.03,0.36,-38.95,3.01
8.457635,0.3892,0.0000,0.7490,-12.88,-158.75,4.88,0.04,-42.08,2.91
8.487779,0.4448,0.0034,0.6294,-7.08,-159.48,4.15,-0.18,-45.27,2.83
8.487779,0.4741,-0.0068,0.5923,-1.71,-152.10,2.14,-0.27,-48.37,2.73
8.517818,0.5063,0.0205,0.5605,0.00,-152.34,0.92,-0.25,-51.40,2.57
8.517818,0.5601,0.0254,0.5107,-1.71,-150.63,0.92,-0.21,-54.43,2.39
8.577484,0.5811,0.0220,0.4888,-6.35,-147.28,1.65,-0.25,-57.39,2.22
8.577484,0.6460,0.0205,0.4604,-10.44,-142.40,3.36,-0.42,-60.28,2.11
8.607797,0.6714,-0.0049,0.4126,-10.44,-137.94,4.09,-0.73,-63.07,2.09
8.607797,0.6650,-0.0063,0.3530,-5.43,-139.04,2.50,-0.99,-65.81,2.10
8.637680,0.6929,-0.0078,0.3071,0.37,-142.76,0.79,-1.08,-68.62,2.03
8.637680,0.7183,0.0107,0.2793,1.83,-146.06,1.16,-1.05,-71.49,1.93
8.698201,0.7744,0.0220,0.2188,-0.37,-146.79,2.75,-1.13,-74.42,1.92
8.698201,0.7891,0.0239,0.1538,-5.62,-144.29,3.72,-1.46,-77.32,2.09
8.727901,0.7622,0.0044,0.0601,-9.70,-143.62,5.00,-2.21,-80.17,2.59
8.727901,0.7383,-0.0259,-0.0972,-9.40,-144.10,5.98,-3.89,-83.04,3.98
8.757603,0.7607,-0.0400,-0.2788,-8.00,-136.05,5.07,-8.12,-85.83,7.94
8.757603,0.7783,-0.0439,-0.4341,-7.08,-115.48,4.21,-31.53,-88.23,31.10
8.817770,0.7598,-0.0513,-0.5298,-5.37,-91.06,3.54,-155.60,-87.90,154.96
8.817770,0.7705,-0.0381,-0.5947,-1.34,-65.19,2.69,-168.26,-86.40,167.45
8.847731,0.7939,-0.0117,-0.5869,3.17,-35.40,0.79,-171.06,-85.43,170.18
8.847731,0.7993,-0.0122,-0.5273,5.19,-9.70,-0.79,-171.99,-85.01,171.10
8.877741,0.8242,-0.0210,-0.4692,5.86,12.94,-1.53,-172.06,-85.06,171.19
8.877741,0.8257,-0.0210,-0.4155,5.86,32.35,-1.46,-171.17,-85.52,170.31
8.937739,0.8018,-0.0312,-0.3789,5.98,47.49,-1.40,-168.65,-86.32,167.81
8.937739,0.7915,-0.0317,-0.3389,7.02,60.00,-1.04,-161.78,-87.36,160.97
8.967853,0.8071,-0.0156,-0.2812,7.63,74.52,-0.24,-124.91,-88.47,124.14
8.967853,0.8145,-0.0142,-0.2036,8.36,86.55,-0.12,-28.75,-87.86,28.03
8.998067,0.8218,0.0029,-0.0957,7.39,95.70,0.18,-13.04,-86.13,12.37
8.998067,0.8242,0.0249,-0.0366,3.36,99.12,0.61,-8.65,-84.20,7.98
9.068702,0.7866,0.0171,-0.0503,2.01,101.75,0.98,-6.75,-82.21,6.03
9.068702,0.7749,-0.0190,-0.0845,6.10,105.29,-0.73,-5.58,-80.17,4.82
9.088821,0.7881,-0.0503,-0.0161,13.49,121.64,-6.23,-4.25,-77.93,3.58
9.088821,0.7651,0.0063,0.2007,14.04,134.40,-10.07,-2.80,-75.35,2.30
9.117718,0.7466,0.0371,0.3086,6.96,130.62,-8.73,-1.74,-72.70,1.32
9.117718,0.7285,-0.0103,0.2524,2.20,122.56,-3.66,-1.29,-70.19,0.83
9.177814,0.7202,-0.0620,0.1836,0.73,127.01,-0.67,-1.21,-67.74,0.68
9.177814,0.7188,0.0195,0.2349,-2.56,146.67,-1.28,-1.23,-65.01,0.59
9.207785,0.6851,-0.0005,0.3408,-3.11,167.18,-3.66,-1.24,-61.86,0.42
9.207785,0.5825,-0.0410,0.4868,2.62,170.90,-6.53,-1.09,-58.45,0.15
9.237795,0.5347,0.0122,0.5410,8.48,157.53,-6.84,-0.81,-55.17,-0.14
9.237795,0.5757,0.0220,0.5044,15.50,150.76,-5.92,-0.47,-52.15,-0.36
9.297970,0.5107,-0.0396,0.5962,23.99,167.60,-11.17,0.05,-48.97,-0.62
9.297970,0.4731,-0.0093,0.7544,27.83,173.83,-15.38,0.75,-45.53,-0.95
9.327783,0.4468,0.0620,0.8931,23.44,171.39,-15.38,1.43,-42.06,-1.27
9.327783,0.4443,0.0903,0.9604,16.30,164.12,-13.79,1.91,-38.72,-1.50
9.357691,0.4165,0.0518,0.9858,14.71,159.30,-12.39,2.24,-35.49,-1.67
9.357691,0.3545,0.0347,1.0435,17.27,152.77,-12.51,2.59,-32.34,-1.81
9.417604,0.3408,0.0903,1.0615,15.26,136.72,-11.78,2.94,-29.44,-1.97
9.417604,0.3750,0.1079,0.9658,7.69,126.53,-9.16,3.18,-26.83,-2.08
9.449003,0.3291,0.0693,0.9077,3.54,135.50,-7.63,3.25,-24.21,-2.20
9.449003,0.2261,0.0439,0.9434,7.20,142.82,-7.45,3.32,-21.41,-1.94
9.507839,0.1694,0.0732,1.0215,10.56,142.09,-7.57,3.47,-18.54,-1.73
9.507839,0.1543,0.1108,1.0381,9.83,134.89,-6.84,3.65,-15.78,-1.50
9.538042,0.1118,0.1089,1.0005,5.13,129.21,-4.52,3.77,-13.15,-1.25
9.538042,0.0664,0.0566,0.9028,3.30,131.04,-3.54,3.81,-10.57,-0.98
9.567477,-0.0122,0.0381,0.8877,8.18,143.55,-5.43,3.89,-7.84,-0.69
9.567477,-0.0986,0.1504,1.0933,9.77,155.82,-7.75,4.06,-4.81,-0.44
9.631332,-0.1704,0.1807,1.2725,5.37,145.14,-6.16,4.21,-1.77,-0.18
9.631332,-0.2017,0.1191,1.3022,-1.04,124.76,-5.68,4.24,0.90,0.07
9.657756,-0.1626,0.1313,1.2290,-5.37,112.18,-3.54,4.17,3.25,0.31
9.657756,-0.1611,0.1265,1.1963,-10.19,107.30,0.43,4.03,5.43,0.60
9.687813,-0.1899,0.1143,1.2041,-14.16,106.63,3.05,3.80,7.55,0.94
9.687813,-0.2305,0.0806,1.2432,-12.51,108.89,3.11,3.56,9.70,1.31
9.748125,-0.3066,0.0425,1.3555,-4.46,104.86,0.61,3.43,11.85,1.63
9.748125,-0.3188,0.0674,1.4360,5.80,80.99,-4.21,3.47,13.72,1.85
9.777574,-0.2656,0.0947,1.4263,12.08,60.12,-7.87,3.66,15.11,1.94
9.777574,-0.2437,0.0576,1.3823,13.61,43.95,-9.46,3.91,16.15,1.96
9.807714,-0.2471,0.0591,1.3564,8.73,31.92,-8.79,4.11,16.91,1.94
9.807714,-0.2285,0.1084,1.2812,0.73,24.05,-7.93,4.16,17.47,1.92
9.867882,-0.1982,0.1250,1.1899,-3.48,21.06,-6.96,4.09,17.93,1.91
9.867882,-0.1885,0.0923,1.1465,-5.00,16.36,-6.04,3.98,18.32,1.91
9.897927,-0.1816,0.0469,1.0889,-5.19,9.46,-4.27,3.85,18.58,1.92
9.897927,-0.1934,0.0127,1.0352,-2.99,3.23,-1.71,3.74,18.71,1.96
9.927739,-0.2275,0.0205,1.0195,-0.18,-2.56,0.12,3.71,18.72,2.05
9.927739,-0.2461,0.0410,1.0156,2.20,-7.26,0.49,3.73,18.61,2.14
9.987766,-0.2568,0.0703,1.0195,3.54,-11.05,0.37,3.78,18.42,2.24
9.987766,-0.2671,0.0845,1.0342,3.97,-14.16,0.31,3.86,18.16,2.31
10.017772,-0.2808,0.0806,1.0576,4.52,-16.36,0.00,3.93,17.85,2.38
10.017772,-0.2886,0.0957,1.1069,4.39,-21.30,-0.85,4.00,17.47,2.43
10.048217,-0.2788,0.1279,1.1553,2.93,-27.59,-2.08,4.05,16.98,2.45
10.048217,-0.2339,0.1387,1.1997,0.00,-32.47,-2.75,4.05,16.39,2.43
10.110654,-0.1904,0.1338,1.2529,-3.54,-38.70,-2.50,3.98,15.68,2.41
10.110654,-0.1929,0.1030,1.3120,-6.84,-47.00,-1.95,3.83,14.83,2.37
10.137826,-0.1963,0.0688,1.3604,-8.30,-61.46,-0.55,3.65,13.74,2.34
10.137826,-0.1704,0.0825,1.4014,-11.05,-74.58,2.01,3.43,12.36,2.33
10.168245,-0.1299,0.1265,1.4351,-17.33,-81.73,4.52,3.14,10.78,2.36
10.168245,-0.1406,0.1289,1.4365,-23.38,-90.82,6.84,2.72,9.05,2.44
10.227485,-0.1699,0.0762,1.3857,-26.00,-103.70,7.69,2.21,7.09,2.56
10.227485,-0.1743,0.0112,1.3154,-22.71,-117.31,6.65,1.72,4.86,2.68
10.257433,-0.1333,0.0088,1.2827,-17.27,-127.69,4.88,1.32,2.38,2.75
10.257433,-0.0850,0.0332,1.2979,-13.18,-131.96,3.36,1.02,-0.23,2.81
10.287478,-0.0615,0.0386,1.3096,-10.56,-133.06,1.65,0.78,-2.88,2.85
10.287478,-0.0771,0.0225,1.3081,-7.02,-141.66,-0.06,0.61,-5.61,2.86
10.347798,-0.0493,0.0234,1.2314,-3.78,-158.45,-0.85,0.52,-8.62,2.83
10.347798,0.0117,0.0391,1.1299,-3.54,-169.80,-1.16,0.47,-11.93,2.79
10.378779,0.0859,0.0581,1.0630,-7.57,-163.09,-1.71,0.40,-15.28,2.74
10.378779,0.1162,0.0195,1.0337,-10.99,-148.38,-2.26,0.25,-18.39,2.71
10.407744,0.0972,0.0127,1.0752,-10.07,-143.74,-2.62,0.09,-21.27,2.66
10.407744,0.0894,0.0063,1.0815,-7.63,-161.87,-0.92,-0.03,-24.31,2.60
10.467605,0.1235,0.0000,1.0015,-5.55,-180.24,1.04,-0.12,-27.75,2.43
10.467605,0.1948,0.0234,0.8765,-8.18,-187.56,3.17,-0.24,-31.45,2.30
10.497617,0.2808,0.0361,0.7651,-13.43,-177.49,4.09,-0.46,-35.11,2.21
10.497617,0.3330,0.0083,0.7310,-15.87,-159.42,4.39,-0.80,-38.47,2.16
10.527757,0.3081,-0.0020,0.7578,-13.85,-153.26,4.33,-1.16,-41.54,2.16
10.527757,0.3120,0.0039,0.7295,-10.99,-167.85,3.78,-1.47,-44.74,2.17
10.587596,0.3965,0.0088,0.6060,-10.19,-174.44,3.54,-1.78,-48.19,2.20
10.587596,0.4863,0.0059,0.4912,-9.46,-165.47,1.83,-2.09,-51.60,2.25
10.617410,0.5205,-0.0083,0.4404,-5.98,-152.22,-0.55,-2.32,-54.73,2.24
10.617410,0.5464,-0.0151,0.4517,-1.16,-147.71,-2.50,-2.42,-57.71,2.17
10.647820,0.5649,0.0000,0.4604,-0.92,-151.61,-2.44,-2.43,-60.68,2.08
10.647820,0.6187,0.0034,0.4077,-4.82,-158.39,-1.04,-2.53,-63.79,2.03
10.708547,0.6382,-0.0337,0.2622,-7.39,-158.08,0.12,-2.80,-66.95,2.08
10.708547,0.6660,-0.0674,0.1069,-5.31,-155.09,0.92,-3.20,-70.08,2.27
10.737451,0.7231,-0.0430,0.0874,-8.18,-144.47,2.56,-3.76,-73.06,2.64
10.737451,0.7690,-0.0151,0.1226,-18.49,-133.85,5.19,-4.87,-75.82,3.41
10.767517,0.7598,-0.0073,0.1611,-24.60,-131.16,6.77,-6.84,-78.42,4.87
10.767517,0.7490,-0.0615,0.0625,-16.05,-138.67,6.16,-10.05,-81.07,7.59
10.827823,0.7559,-0.0835,-0.1206,1.89,-142.09,2.87,-15.66,-83.81,13.01
10.827823,0.8052,-0.0444,-0.3091,13.85,-133.30,-1.28,-29.67,-86.41,27.15
10.857917,0.8159,-0.0107,-0.4595,16.72,-110.23,-4.58,-88.87,-87.96,86.59
10.857917,0.8242,0.0034,-0.5591,14.95,-80.14,-5.49,-148.93,-87.05,146.90
10.917493,0.8354,0.0151,-0.5786,10.99,-45.59,-5.43,-162.15,-85.98,160.31
10.917493,0.8257,0.0020,-0.5254,8.30,-18.31,-6.47,-166.67,-85.44,164.94
10.948850,0.8447,0.0259,-0.4399,6.35,3.85,-6.71,-168.87,-85.35,167.19
10.948850,0.8574,0.0352,-0.3818,3.54,19.47,-6.10,-169.87,-85.62,168.20
10.980282,0.8638,0.0322,-0.3628,0.79,34.55,-5.92,-169.95,-86.18,168.23
10.980282,0.8608,0.0083,-0.3604,0.73,49.13,-5.92,-168.49,-87.03,166.70
11.037805,0.8418,-0.0259,-0.3364,3.30,63.05,-6.23,-161.04,-88.15,159.19
11.037805,0.8198,-0.0220,-0.2759,7.14,72.75,-6.96,-34.96,-88.78,33.12
11.067759,0.8086,-0.0234,-0.2373,9.95,78.92,-8.12,-4.16,-87.33,2.40
11.067759,0.8081,-0.0259,-0.2036,10.50,86.00,-8.18,-0.11,-85.68,-1.53
11.097458,0.8247,-0.0073,-0.1841,7.02,96.37,-7.26,1.21,-83.87,-2.77
11.097458,0.8008,-0.0098,-0.1460,5.43,112.73,-6.41,1.57,-81.77,-3.10
11.157508,0.7363,0.0093,-0.0688,8.97,121.22,-7.45,1.74,-79.41,-3.22
11.157508,0.7114,0.0156,0.0166,13.49,123.60,-8.67,2.07,-76.96,-3.41
11.187472,0.7275,0.0156,0.0962,12.08,127.69,-7.81,2.35,-74.45,-3.52
11.187472,0.7271,0.0186,0.1602,6.90,138.06,-6.53,2.40,-71.80,-3.47
11.217508,0.7075,0.0122,0.2168,4.15,149.23,-5.98,2.30,-68.92,-3.34
11.217508,0.6367,-0.0527,0.2769,9.52,152.59,-6.16,2.22,-65.89,-3.21
11.279490,0.6196,-0.0010,0.4033,13.55,150.82,-6.29,2.32,-62.85,-3.13
11.279490,0.6265,0.0322,0.4531,8.97,149.23,-3.85,2.36,-59.88,-3.00
11.307738,0.5938,0.0449,0.4512,6.16,153.50,-2.08,2.26,-56.86,-2.81
11.307738,0.5688,0.0171,0.5088,7.57,166.32,-2.69,2.15,-53.68,-2.61
11.337715,0.5229,0.0317,0.6509,8.12,178.71,-4.15,2.11,-50.21,-2.46
11.337715,0.4595,0.0684,0.7764,7.20,177.25,-3.97,2.10,-46.63,-2.33
11.397740,0.4243,0.0542,0.7969,7.75,165.53,-1.89,2.08,-43.22,-2.20
11.397740,0.4106,0.0190,0.8350,10.31,166.87,-3.23,2.11,-39.93,-2.07
11.428445,0.3701,-0.0024,0.9463,14.59,174.44,-7.69,2.27,-36.52,-2.03
11.428445,0.3525,0.0957,1.1328,11.35,181.21,-11.05,2.52,-32.94,-2.07
11.457711,0.3198,0.1602,1.2031,0.00,170.72,-9.40,2.60,-29.39,-2.13
11.457711,0.2769,0.1108,1.0796,-8.12,146.73,-4.76,2.45,-26.22,-2.03
11.517755,0.2402,0.0298,0.9062,-4.58,133.42,-3.17,2.26,-23.47,-1.78
11.517755,0.2300,0.0522,0.9429,-1.77,147.46,-5.74,2.18,-20.70,-1.55
11.549150,0.1836,0.0684,1.0908,-6.29,166.14,-6.65,2.08,-17.52,-1.40
11.549150,0.0845,0.0142,1.1382,-8.12,161.19,-4.46,1.90,-14.21,-1.21
11.578753,-0.0068,-0.0176,1.0991,-2.08,136.41,-2.56,1.76,-11.23,-1.01
11.578753,-0.0205,0.0273,1.0342,7.45,115.91,-2.87,1.81,-8.76,-0.82
11.637726,-0.0059,0.0630,1.0820,8.18,122.44,-4.64,1.98,-6.42,-0.66
11.637726,-0.0269,0.1064,1.2075,0.98,139.95,-6.29,2.06,-3.76,-0.52
11.667740,-0.0894,0.0791,1.2749,-3.11,136.60,-4.88,2.02,-0.95,-0.37
11.667740,-0.1484,0.0273,1.2554,0.00,114.32,-3.48,1.98,1.56,-0.21
11.697764,-0.1538,0.0161,1.1543,6.77,95.52,-3.23,2.05,3.62,-0.05
11.697764,-0.1826,0.0527,1.0796,13.85,90.94,-4.52,2.27,5.48,0.07
11.757753,-0.1719,0.1050,1.0610,15.81,94.30,-6.96,2.58,7.32,0.18
11.757753,-0.2188,0.1118,1.0962,14.95,100.83,-11.11,2.88,9.29,0.23
11.787875,-0.2290,0.1787,1.1499,13.67,100.22,-13.85,3.15,11.33,0.22
11.787875,-0.2070,0.1880,1.2114,13.49,99.61,-12.27,3.40,13.34,0.21
11.817836,-0.2788,0.0493,1.2729,16.36,102.05,-10.13,3.69,15.38,0.26
11.817836,-0.3228,-0.0293,1.3398,18.43,92.53,-7.63,4.04,17.35,0.35
11.878902,-0.3086,0.0503,1.4014,15.26,73.55,-3.42,4.41,19.01,0.50
11.878902,-0.2783,0.1680,1.4009,5.74,55.05,0.67,4.65,20.29,0.70
11.908774,-0.2705,0.2168,1.3154,-4.46,40.47,2.62,4.71,21.21,0.94
11.908774,-0.2803,0.1694,1.2031,-11.41,32.23,1.89,4.58,21.91,1.17
11.937577,-0.3174,0.0752,1.1436,-12.45,27.77,-1.10,4.36,22.51,1.34
11.937577,-0.3438,0.0327,1.1099,-8.24,16.17,-4.58,4.14,22.97,1.41
11.997795,-0.3325,0.0356,1.0977,-3.23,-0.79,-6.41,3.99,23.12,1.40
11.997795,-0.3228,0.0400,1.0859,-1.16,-13.55,-6.35,3.89,22.97,1.33
12.028801,-0.3301,0.0229,1.0752,0.49,-23.19,-4.88,3.82,22.60,1.26
12.028801,-0.3550,0.0151,1.0825,3.72,-32.04,-3.17,3.82,22.06,1.21
12.057688,-0.3491,0.0547,1.0898,5.13,-39.25,-1.95,3.87,21.34,1.18
12.057688,-0.3140,0.1030,1.0952,4.21,-41.32,-0.24,3.92,20.52,1.16
12.118147,-0.2925,0.1211,1.1821,1.34,-40.95,2.20,3.96,19.70,1.19
12.118147,-0.3022,0.1162,1.2935,-3.36,-48.71,5.13,3.93,18.81,1.28
12.148935,-0.2905,0.1221,1.3555,-8.18,-61.28,7.75,3.82,17.70,1.40
12.148935,-0.2944,0.1353,1.3623,-11.29,-79.16,8.48,3.63,16.28,1.53
12.178906,-0.2778,0.1396,1.3618,-14.83,-92.96,7.26,3.37,14.52,1.63
12.178906,-0.2451,0.1631,1.3955,-21.24,-100.65,5.74,3.00,12.57,1.69
12.237738,-0.2520,0.1191,1.3999,-24.41,-110.23,4.82,2.52,10.46,1.73
12.237738,-0.2427,0.0845,1.4014,-19.96,-127.08,3.54,2.05,8.09,1.75
12.267729,-0.1963,0.0801,1.3833,-15.62,-146.18,2.99,1.70,5.32,1.74
12.267729,-0.1255,0.0747,1.3198,-16.66,-156.19,3.23,1.37,2.28,1.73
12.328112,-0.0894,0.0332,1.2402,-17.09,-159.30,4.15,1.03,-0.88,1.75
12.328112,-0.0737,-0.0278,1.1646,-12.57,-159.79,3.11,0.73,-4.08,1.78
12.357704,-0.0420,-0.0078,1.1533,-5.13,-159.73,1.28,0.56,-7.27,1.79
12.357704,-0.0273,0.0054,1.1831,-2.14,-166.44,0.85,0.51,-10.52,1.79
12.387730,0.0151,0.0171,1.1230,-3.48,-176.94,0.18,0.48,-13.97,1.76
12.387730,0.0796,0.0220,1.0049,-4.94,-177.86,0.49,0.43,-17.53,1.73
12.447801,0.1318,0.0186,0.9199,-3.78,-171.51,1.04,0.37,-21.03,1.72
12.447801,0.1748,0.0205,0.8984,-4.33,-163.64,1.89,0.35,-24.40,1.76
12.478367,0.1997,0.0288,0.9146,-9.52,-156.43,2.69,0.25,-27.58,1.59
12.478367,0.2114,0.0273,0.9111,-16.11,-156.43,4.46,0.00,-30.69,1.47
12.507715,0.2437,0.0142,0.8496,-19.78,-160.77,6.16,-0.40,-33.86,1.42
12.507715,0.2788,0.0088,0.7393,-18.80,-164.37,7.87,-0.86,-37.11,1.45
12.567749,0.3330,0.0137,0.6572,-18.01,-164.92,8.67,-1.35,-40.41,1.56
12.567749,0.3892,-0.0200,0.5771,-17.40,-154.91,7.14,-1.87,-43.61,1.70
12.597728,0.4375,-0.0454,0.5366,-12.76,-139.89,3.72,-2.32,-46.54,1.82
12.597728,0.4771,-0.0259,0.5625,-8.18,-130.74,0.67,-2.63,-49.22,1.87
12.632053,0.5063,-0.0342,0.5581,-3.91,-132.26,-1.04,-2.81,-51.83,1.87
12.632053,0.5581,-0.0298,0.4971,-2.32,-134.40,-2.01,-2.92,-54.50,1.85
12.687781,0.6367,-0.0332,0.4092,-2.08,-127.32,-2.69,-2.99,-57.13,1.80
12.687781,0.6665,-0.0107,0.3970,-1.95,-115.23,-3.36,-3.04,-59.53,1.72
12.717539,0.6890,0.0015,0.4141,-2.87,-109.68,-3.85,-3.08,-61.77,1.62
12.717539,0.7007,-0.0063,0.4121,-2.26,-111.82,-3.30,-3.11,-63.96,1.52
12.748023,0.7456,0.0059,0.3647,-2.50,-117.86,-1.71,-3.21,-66.25,1.47
12.748023,0.7778,-0.0195,0.2593,-2.20,-120.91,-0.06,-3.42,-68.65,1.55
12.808406,0.7959,0.0049,0.1802,-2.38,-117.98,1.46,-3.76,-71.03,1.79
12.808406,0.7949,0.0142,0.1172,-3.17,-114.62,3.42,-4.32,-73.34,2.23
12.837698,0.8037,-0.0298,0.0391,-0.55,-111.69,5.19,-5.21,-75.59,3.02
12.837698,0.8496,-0.0234,0.1001,0.49,-103.39,5.62,-6.43,-77.72,4.19
12.867721,0.8877,-0.0078,0.1963,-2.56,-100.71,5.25,-8.17,-79.72,5.86
12.867721,0.8955,-0.0396,0.2524,-5.00,-106.20,3.60,-10.77,-81.74,8.32
12.928501,0.9097,-0.0635,0.1372,-4.03,-115.78,1.53,-15.33,-83.91,12.71
12.928501,0.8911,-0.0581,-0.0264,0.43,-116.52,-1.40,-25.86,-86.13,23.14
12.957497,0.8652,-0.0347,-0.1670,4.88,-111.69,-5.86,-67.49,-87.90,64.77
12.957497,0.8677,-0.0322,-0.3091,7.08,-99.37,-9.03,-147.82,-87.32,145.16
12.987492,0.8623,-0.0317,-0.4111,7.93,-80.20,-10.19,-167.06,-85.75,164.49
12.987492,0.8521,-0.0176,-0.4624,8.79,-60.85,-9.28,-173.32,-84.42,170.85
13.047903,0.8613,0.0029,-0.5015,7.87,-40.28,-7.75,-176.23,-83.44,173.86
13.047903,0.8574,-0.0049,-0.5288,6.29,-17.94,-5.62,-177.74,-82.89,175.43
13.079002,0.8506,-0.0098,-0.5317,5.68,3.23,-3.78,-178.51,-82.76,176.24
13.079002,0.8413,-0.0132,-0.4922,4.21,23.19,-1.77,-178.75,-83.05,176.51
13.107709,0.8555,-0.0161,-0.4507,2.32,41.75,-0.37,-178.55,-83.70,176.28
13.107709,0.8501,-0.0088,-0.3774,-0.18,59.57,-0.37,-177.91,-84.73,175.58
13.167653,0.8359,0.0098,-0.2847,-2.32,70.50,-0.73,-176.68,-86.05,174.24
13.167653,0.8135,0.0093,-0.2212,-4.39,75.56,-0.79,-173.11,-87.51,170.51
13.197718,0.8027,-0.0063,-0.2212,-5.49,77.39,-1.28,-127.14,-88.94,124.35
13.197718,0.8237,-0.0146,-0.2432,-5.43,86.43,-2.26,-8.93,-87.74,5.94
13.227502,0.8301,-0.0234,-0.2290,-3.42,101.14,-4.03,-3.79,-85.87,0.62
13.227502,0.7793,-0.0342,-0.1543,2.44,113.65,-6.65,-1.75,-83.70,-1.51
13.287652,0.7686,-0.0391,-0.0864,6.96,118.71,-8.85,-0.43,-81.38,-2.81
13.287652,0.7485,-0.0190,-0.0312,8.30,125.92,-8.73,0.44,-78.93,-3.63
13.317757,0.7524,-0.0190,0.0293,9.89,135.01,-7.08,0.92,-76.33,-4.00
13.317757,0.6968,-0.0259,0.1074,10.31,140.50,-6.04,1.15,-73.55,-4.11
13.347812,0.6836,-0.0117,0.1631,11.90,144.17,-4.58,1.29,-70.71,-4.10
13.347812,0.6733,0.0356,0.2402,12.27,150.21,-2.69,1.32,-67.77,-3.97
13.407593,0.6450,0.0483,0.3013,15.20,156.49,-2.44,1.35,-64.70,-3.78
13.407593,0.5806,-0.0078,0.4077,23.19,161.38,-4.82,1.54,-61.52,-3.65
13.437576,0.5645,0.0396,0.5244,24.23,159.00,-6.90,1.93,-58.32,-3.61
13.437576,0.5771,0.0928,0.6133,18.80,161.01,-5.25,2.25,-55.13,-3.56
13.467524,0.5669,0.0693,0.6982,14.34,166.50,-4.09,2.39,-51.86,-3.42
13.467524,0.5049,0.0073,0.7837,17.52,167.85,-6.29,2.54,-48.50,-3.30
13.529671,0.4780,0.1074,0.9199,16.85,163.57,-8.24,2.80,-45.18,-3.25
13.529671,0.4932,0.1631,0.9766,5.80,152.40,-5.55,2.94,-42.03,-3.20
13.557886,0.4912,0.1011,0.9185,-5.86,148.50,-0.85,2.77,-39.05,-3.07
13.557886,0.4502,0.0210,0.8784,-7.39,151.37,1.65,2.43,-36.07,-2.86
13.587786,0.3853,0.0278,0.9932,-4.52,158.51,0.06,2.15,-32.96,-2.68
13.587786,0.3438,0.0718,1.1021,-2.93,148.74,-0.18,1.97,-29.87,-2.53
13.648085,0.3311,0.0479,1.0674,-4.15,131.35,1.83,1.79,-27.09,-2.42
13.648085,0.3022,-0.0195,0.9258,0.49,116.70,3.78,1.64,-24.64,-2.29
13.677768,0.2666,-0.0278,0.8965,10.25,121.15,1.46,1.68,-22.30,-2.08
13.677768,0.2188,-0.0083,0.9976,15.26,136.96,-3.30,1.90,-19.70,-1.86
13.737797,0.1655,0.0400,1.1094,15.62,138.85,-6.16,2.19,-16.91,-1.69
13.737797,0.1265,0.0781,1.1304,12.57,125.55,-6.23,2.46,-14.26,-1.54
13.767779,0.1128,0.0938,1.0771,9.52,116.09,-5.31,2.66,-11.87,-1.40
13.767779,0.0830,0.1055,1.0532,6.90,117.74,-6.59,2.82,-9.54,-1.26
13.797731,0.0576,0.1313,1.0840,3.48,123.84,-7.93,2.92,-7.11,-1.13
13.797731,0.0210,0.1348,1.1294,-0.24,125.18,-8.42,2.94,-4.60,-1.02
13.857546,-0.0225,0.1152,1.1455,-2.56,116.46,-7.26,2.91,-2.17,-0.91
13.857546,-0.0776,0.0620,1.1016,-1.46,104.61,-6.53,2.86,0.04,-0.79
13.887736,-0.1123,0.0620,1.0742,0.79,99.37,-9.28,2.86,2.05,-0.71
13.887736,-0.0938,0.1177,1.0938,0.00,103.76,-10.56,2.87,4.09,-0.68
13.917803,-0.1343,0.0791,1.1245,-1.95,105.90,-9.22,2.84,6.21,-0.63
13.917803,-0.1943,0.0200,1.1362,3.17,100.46,-7.51,2.84,8.29,-0.55
13.977758,-0.2573,-0.0249,1.1489,13.06,90.33,-7.87,3.00,10.21,-0.47
13.977758,-0.3193,-0.0200,1.1880,20.45,82.28,-10.68,3.35,11.94,-0.44
14.007718,-0.3174,0.0322,1.1919,23.13,78.12,-12.94,3.77,13.54,-0.46
14.007718,-0.2964,0.0840,1.1538,24.11,79.53,-13.37,4.21,15.14,-0.48
14.037689,-0.2998,0.1089,1.1577,22.46,77.70,-11.35,4.66,16.74,-0.49
14.037689,-0.2666,0.1816,1.2104,15.69,73.36,-7.63,5.04,18.26,-0.43
14.097735,-0.3115,0.1934,1.2866,5.49,69.15,-5.31,5.27,19.69,-0.29
14.097735,-0.3511,0.1270,1.3047,-3.54,65.37,-6.59,5.28,21.05,-0.16
14.127784,-0.3550,0.0591,1.2344,-4.82,51.94,-5.74,5.19,22.24,-0.07
14.127784,-0.3589,-0.0005,1.1489,0.00,32.17,-3.48,5.14,23.07,0.02
14.157775,-0.3555,0.0869,1.0762,3.60,14.47,-1.34,5.19,23.52,0.10
14.157775,-0.3130,0.1938,0.9854,1.16,6.59,1.34,5.25,23.70,0.21
14.217746,-0.3145,0.1807,0.9336,-4.21,11.17,2.50,5.24,23.87,0.37
14.217746,-0.3550,0.1211,0.9419,-5.49,13.24,1.95,5.16,24.13,0.53
14.248036,-0.3853,0.1021,1.0205,-1.10,4.82,0.79,5.11,24.31,0.68
14.248036,-0.3857,0.1289,1.1147,0.24,-6.29,-0.37,5.11,24.29,0.76
14.277714,-0.3672,0.1523,1.1602,-2.38,-16.42,-1.59,5.08,24.05,0.79
14.277714,-0.3550,0.1401,1.1812,-5.19,-26.06,-1.83,4.96,23.63,0.79
14.337752,-0.3555,0.0933,1.1782,-6.59,-37.60,-1.46,4.79,22.99,0.76
14.337752,-0.3364,0.0537,1.1523,-7.75,-48.83,-1.34,4.60,22.12,0.71
14.367749,-0.3047,0.0386,1.1265,-8.30,-53.71,0.00,4.38,21.09,0.66
14.367749,-0.3130,0.0269,1.1587,-7.93,-56.95,1.40,4.19,19.98,0.65
14.397680,-0.2891,0.0317,1.1987,-7.14,-64.82,2.44,4.01,18.77,0.65
14.397680,-0.2612,0.0537,1.2139,-4.39,-74.22,3.97,3.87,17.36,0.66
14.457743,-0.2603,0.1001,1.2891,-1.71,-83.25,5.55,3.80,15.79,0.70
14.457743,-0.2627,0.1724,1.3535,-4.76,-97.41,6.59,3.73,13.96,0.75
14.487823,-0.2510,0.1777,1.3237,-12.88,-104.68,6.16,3.53,11.93,0.78
14.487823,-0.2168,0.1548,1.2427,-16.91,-107.91,5.74,3.21,9.78,0.80
14.517761,-0.2002,0.1196,1.1875,-14.34,-109.25,5.80,2.88,7.61,0.83
14.517761,-0.1978,0.0786,1.1890,-9.34,-113.46,4.09,2.64,5.38,0.86
14.577752,-0.1616,0.0889,1.2290,-6.65,-117.68,2.20,2.48,3.07,0.85
14.577752,-0.1318,0.1118,1.2598,-8.91,-122.25,1.16,2.32,0.67,0.80
14.607741,-0.0972,0.0894,1.2183,-12.08,-127.50,1.46,2.11,-1.83,0.75
14.607741,-0.0698,0.0254,1.1382,-10.86,-132.63,1.77,1.87,-4.43,0.71
14.637718,-0.0347,0.0269,1.0811,-7.81,-137.70,2.26,1.70,-7.14,0.69
14.637718,0.0137,0.0156,1.0298,-8.06,-138.24,3.42,1.57,-9.91,0.68
14.698065,0.0391,0.0010,1.0132,-10.50,-133.85,4.15,1.39,-12.63,0.70
14.698065,0.0737,0.0054,0.9897,-12.45,-130.55,4.76,1.16,-15.28,0.75
14.727799,0.1162,0.0093,0.9648,-12.08,-125.79,5.55,0.92,-17.84,0.83
14.727799,0.1548,0.0015,0.9556,-10.07,-121.22,7.02,0.69,-20.31,0.94
14.757733,0.1597,-0.0342,0.9751,-8.67,-122.92,7.81,0.48,-22.74,0.96
14.757733,0.1953,-0.0176,0.9619,-8.54,-129.70,8.54,0.27,-25.27,1.00
14.817834,0.2378,-0.0073,0.8862,-7.63,-132.39,8.97,0.05,-27.91,1.04
14.817834,0.2783,0.0039,0.8369,-5.43,-131.10,7.69,-0.14,-30.55,1.08
14.848051,0.3184,0.0381,0.8369,-5.68,-129.21,6.41,-0.30,-33.15,1.10
14.848051,0.3584,0.0630,0.8232,-10.07,-130.55,5.13,-0.51,-35.74,1.10
14.877748,0.3901,0.0532,0.7769,-14.71,-132.57,4.27,-0.81,-38.36,1.10
14.877748,0.4185,0.0215,0.7266,-16.48,-135.38,2.93,-1.17,-41.05,1.09
14.937898,0.4536,0.0200,0.6860,-18.01,-139.10,2.38,-1.56,-43.79,1.08
14.937898,0.5078,-0.0029,0.5854,-17.46,-142.70,1.83,-1.98,-46.61,1.09
14.967755,0.5649,-0.0205,0.4873,-14.22,-135.31,0.61,-2.37,-49.40,1.10
14.967755,0.5928,-0.0229,0.4673,-12.08,-126.40,-1.22,-2.68,-52.00,1.08
14.997760,0.6152,-0.0122,0.4482,-9.58,-123.41,-1.46,-2.94,-54.48,1.05
14.997760,0.6387,-0.0332,0.4434,-6.29,-122.86,-2.50,-3.14,-56.94,1.03
15.057769,0.6899,-0.0264,0.4282,-2.99,-120.73,-3.97,-3.26,-59.37,0.97
15.057769,0.7168,-0.0493,0.4009,4.39,-116.33,-6.23,-3.19,-61.74,0.83
15.087727,0.7339,-0.0415,0.4170,8.12,-115.36,-7.75,-2.89,-64.04,0.57
15.087727,0.7661,-0.0718,0.3711,7.87,-116.09,-6.23,-2.53,-66.36,0.27
15.148072,0.8047,-0.0718,0.2749,7.51,-113.65,-3.91,-2.21,-68.66,0.02
15.148072,0.8423,-0.0488,0.1943,8.12,-104.49,-2.08,-1.97,-70.83,-0.15
15.177719,0.8735,-0.0186,0.1348,9.52,-95.21,-0.49,-1.76,-72.82,-0.26
15.177719,0.8677,0.0278,0.1128,8.79,-89.60,0.67,-1.62,-74.65,-0.29
15.207704,0.8726,0.0752,0.0718,4.27,-89.23,1.77,-1.61,-76.43,-0.24
15.207704,0.8970,0.0557,-0.0566,-1.22,-85.69,2.50,-1.85,-78.18,-0.05
15.267746,0.8975,0.0186,-0.1699,-4.09,-74.40,0.98,-2.22,-79.78,0.18
15.267746,0.8945,-0.0044,-0.2202,-4.33,-60.18,-1.59,-2.40,-81.12,0.19
15.297888,0.8911,-0.0249,-0.2222,-1.65,-45.10,-4.33,-2.13,-82.16,-0.23
15.297888,0.8809,-0.0366,-0.1768,1.59,-33.57,-5.92,-1.25,-82.93,-1.19
15.327437,0.8760,-0.0234,-0.1597,1.77,-25.33,-5.62,-0.01,-83.51,-2.47
15.327437,0.8765,-0.0171,-0.2168,-0.06,-12.45,-3.91,1.12,-83.89,-3.67
15.388192,0.8667,-0.0083,-0.2808,-1.40,4.46,-1.46,1.71,-83.96,-4.36
15.388192,0.8594,0.0068,-0.3096,-0.98,25.33,0.31,1.57,-83.65,-4.32
15.417424,0.8413,-0.0034,-0.2754,1.53,45.53,-0.61,1.19,-82.92,-4.02
15.417424,0.8447,-0.0029,-0.2065,4.15,63.17,-2.75,1.13,-81.82,-3.97
15.447740,0.8325,-0.0132,-0.1138,5.31,76.05,-3.78,1.24,-80.41,-4.05
15.447740,0.8271,-0.0283,-0.0596,6.23,84.23,-4.88,1.40,-78.80,-4.17
15.507772,0.8452,-0.0210,-0.0195,10.01,93.87,-7.08,1.68,-77.01,-4.37
15.507772,0.8389,0.0044,0.0649,15.99,102.42,-9.34,2.15,-75.04,-4.66
15.537697,0.8335,0.0195,0.1826,20.39,106.93,-10.86,2.75,-72.93,-4.97
15.537697,0.8066,0.0264,0.2773,20.94,100.71,-9.77,3.31,-70.82,-5.20
15.567772,0.8472,0.0264,0.2778,16.60,96.98,-7.26,3.69,-68.86,-5.27
15.567772,0.8442,0.0137,0.2690,11.35,104.68,-5.37,3.80,-66.85,-5.18
15.633306,0.7983,0.0161,0.3008,9.95,112.06,-3.97,3.76,-64.68,-4.99
15.633306,0.7344,0.0068,0.3833,8.00,112.79,-3.11,3.66,-62.42,-4.75
15.657756,0.7437,0.0146,0.4194,5.13,112.37,-2.56,3.52,-60.19,-4.52
15.657756,0.7251,0.0244,0.4619,2.87,116.33,-3.54,3.35,-57.90,-4.33
15.687756,0.6792,-0.0088,0.4995,6.10,119.20,-6.35,3.28,-55.54,-4.22
15.687756,0.6406,0.0049,0.5449,12.63,116.09,-8.24,3.40,-53.17,-4.22
15.748007,0.6655,0.0293,0.5679,15.99,111.94,-8.18,3.65,-50.91,-4.24
15.748007,0.6826,0.0698,0.6094,13.18,118.23,-6.77,3.88,-48.61,-4.23
15.777752,0.6274,0.1133,0.7207,4.52,125.37,-4.46,3.93,-46.16,-4.13
15.777752,0.5962,0.1313,0.7832,-4.09,124.82,-0.79,3.73,-43.66,-3.95
15.807775,0.5386,0.0923,0.7534,-7.51,119.57,2.56,3.37,-41.23,-3.70
15.807775,0.5117,0.0728,0.7173,-5.68,117.13,3.30,3.01,-38.89,-3.44
15.867812,0.4922,0.0669,0.7227,-1.71,125.24,2.81,2.74,-36.49,-3.22
15.867812,0.4116,0.0469,0.8208,0.85,133.06,1.53,2.57,-33.89,-3.01
15.897754,0.3350,0.0366,0.8867,-1.28,124.69,0.55,2.44,-31.31,-2.86
15.897754,0.3096,0.0322,0.8530,-3.54,114.14,0.92,2.29,-28.94,-2.74
15.927738,0.3120,0.0322,0.8071,-4.58,113.16,1.34,2.11,-26.70,-2.64
15.927738,0.2754,0.0415,0.8667,-3.36,132.45,0.98,1.93,-24.26,-2.54
15.987907,0.1362,-0.0132,1.0278,1.46,140.93,-1.95,1.85,-21.49,-2.24
15.987907,0.0894,0.0063,1.1548,4.76,128.78,-4.09,1.89,-18.78,-2.04
16.017828,0.1094,0.0591,1.1250,2.14,106.32,-3.17,1.94,-16.44,-1.91
16.017828,0.1538,0.0864,0.9702,-4.27,91.55,-0.79,1.90,-14.50,-1.75
16.048154,0.1685,0.0811,0.8569,-9.95,104.19,0.43,1.72,-12.58,-1.56
16.048154,0.0703,0.0415,0.8789,-9.64,131.23,-1.77,1.49,-10.21,-1.35
16.107753,-0.0215,0.0576,1.0103,-6.84,141.24,-4.33,1.31,-7.43,-1.20
16.107753,-0.0737,0.0776,1.0854,-4.15,127.75,-3.97,1.20,-4.72,-1.08
16.137743,-0.1104,0.0464,1.0444,-0.24,110.78,-2.93,1.15,-2.36,-0.97
16.137743,-0.1294,0.0181,0.9883,4.94,107.12,-4.76,1.20,-0.20,-0.86
16.167730,-0.1426,0.0674,1.0127,8.85,116.21,-7.26,1.35,2.02,-0.80
16.167730,-0.1978,0.0664,1.0874,9.46,119.93,-8.18,1.53,4.42,-0.76
16.227742,-0.2319,0.0229,1.1177,7.26,114.26,-6.96,1.70,6.77,-0.71
16.227742,-0.2524,0.0264,1.0957,6.65,106.38,-4.82,1.83,8.98,-0.63
16.257714,-0.2515,0.0752,1.0718,9.09,106.81,-2.50,1.99,11.08,-0.49
16.257714,-0.2764,0.1475,1.1514,10.07,125.18,-5.62,2.21,13.40,-0.35
16.287667,-0.3486,0.2144,1.3516,6.59,130.68,-8.73,2.38,16.02,-0.25
16.287667,-0.3755,0.1592,1.5063,2.20,112.00,-8.06,2.47,18.48,-0.19
16.348157,-0.3735,0.0864,1.4980,2.08,78.43,-5.68,2.50,20.38,-0.12
16.348157,-0.3403,0.0757,1.3486,3.91,52.61,-3.05,2.56,21.64,-0.04
16.377740,-0.3750,0.0044,1.1714,6.23,46.88,-2.08,2.67,22.62,0.06
16.377740,-0.3984,-0.0566,1.0596,8.36,50.29,-3.05,2.83,23.58,0.15
16.407788,-0.4194,-0.0137,1.0742,9.64,48.95,-2.50,3.02,24.60,0.25
16.407788,-0.4414,-0.0161,1.1187,10.01,37.17,-1.28,3.23,25.47,0.36
16.467597,-0.4321,-0.0356,1.0786,11.41,20.75,-0.67,3.46,26.03,0.47
16.467597,-0.4038,-0.0059,1.0356,13.79,7.51,-0.18,3.71,26.30,0.57
16.497459,-0.3716,0.0151,0.9961,15.26,3.42,0.06,4.01,26.39,0.65
16.497459,-0.3989,0.0449,0.9854,15.81,2.62,-0.67,4.32,26.46,0.74
16.557857,-0.4214,0.1201,1.0322,12.39,-1.95,-1.71,4.60,26.47,0.79
16.557857,-0.4180,0.1782,1.0547,6.41,-8.73,-1.77,4.76,26.37,0.81
16.587617,-0.4160,0.1626,1.0386,1.71,-14.10,-1.22,4.81,26.14,0.82
16.587617,-0.4263,0.1304,1.0493,-0.06,-17.76,-1.59,4.78,25.82,0.83
16.617611,-0.4062,0.1431,1.1167,-1.59,-23.01,-2.20,4.74,25.41,0.82
16.617611,-0.3750,0.1538,1.2031,-5.43,-28.99,-1.28,4.62,24.90,0.80
16.677769,-0.3647,0.1455,1.2656,-10.50,-39.61,0.12,4.42,24.22,0.79
16.677769,-0.3594,0.1162,1.2734,-15.01,-53.34,0.79,4.13,23.28,0.77
16.707721,-0.3735,0.0771,1.2773,-17.76,-64.39,1.89,3.76,22.10,0.76
16.707721,-0.3472,0.0674,1.2793,-20.69,-76.60,3.30,3.34,20.68,0.76
16.738323,-0.3071,0.0469,1.2256,-24.05,-85.08,5.00,2.87,19.04,0.79
16.738323,-0.2998,0.0063,1.1831,-23.13,-86.36,5.07,2.38,17.31,0.85
16.798567,-0.3501,-0.0049,1.2329,-17.27,-94.30,2.93,1.97,15.52,0.90
16.798567,-0.3384,0.0229,1.2534,-10.68,-109.50,0.18,1.67,13.47,0.88
16.827627,-0.3022,0.0498,1.2598,-5.62,-119.38,-1.28,1.48,11.17,0.82
16.827627,-0.2842,0.0479,1.2354,-0.67,-127.62,-3.11,1.39,8.69,0.73
16.857734,-0.2271,0.0767,1.2358,0.00,-130.25,-3.78,1.37,6.11,0.61
16.857734,-0.1870,0.0874,1.2271,-4.70,-135.25,-2.32,1.31,3.46,0.49
16.917525,-0.1509,0.0737,1.1914,-8.85,-138.49,-0.31,1.16,0.72,0.41
16.917525,-0.1279,0.0562,1.1870,-11.72,-138.79,0.73,0.96,-2.05,0.38
16.948745,-0.0791,0.0781,1.2070,-16.36,-138.67,2.08,0.68,-4.82,0.38
16.948745,-0.0669,0.0342,1.1748,-18.86,-144.47,4.03,0.31,-7.65,0.42
16.977751,-0.0342,0.0322,1.0962,-16.72,-153.63,5.74,-0.05,-10.63,0.52
16.977751,0.0024,0.0229,1.0220,-15.44,-160.34,5.74,-0.38,-13.79,0.64
17.037485,0.0654,0.0117,0.9263,-13.73,-159.36,4.09,-0.69,-17.01,0.75
17.037485,0.1206,0.0205,0.8911,-11.47,-149.66,1.59,-0.94,-20.09,0.84
17.067656,0.1338,0.0112,0.9116,-10.74,-144.04,-0.31,-1.16,-23.01,0.81
17.067656,0.1577,-0.0210,0.9160,-9.46,-147.09,-1.28,-1.36,-25.92,0.74
17.098880,0.2080,-0.0205,0.8555,-7.63,-153.08,-2.32,-1.50,-28.92,0.65
17.098880,0.3091,-0.0044,0.7305,-6.84,-146.67,-2.01,-1.62,-31.94,0.54
17.157748,0.3574,-0.0220,0.6392,-7.32,-133.79,-1.46,-1.74,-34.73,0.44
17.157748,0.4087,-0.0195,0.6372,-9.16,-118.77,-1.40,-1.90,-37.25,0.36
17.187747,0.3999,-0.0176,0.7305,-11.35,-109.62,-0.06,-2.11,-39.50,0.30
17.187747,0.4141,-0.0083,0.7856,-12.45,-118.90,1.16,-2.39,-41.76,0.29
17.218128,0.4561,-0.0137,0.7231,-16.54,-129.70,2.50,-2.77,-44.25,0.34
17.218128,0.5024,-0.0376,0.6069,-18.19,-132.81,2.69,-3.26,-46.89,0.46
17.277765,0.5522,-0.0645,0.5020,-15.56,-130.55,1.77,-3.77,-49.52,0.60
17.277765,0.6025,-0.0864,0.4214,-10.74,-120.97,-0.06,-4.19,-52.03,0.74
17.307731,0.6284,-0.0928,0.4116,-6.65,-115.72,-2.62,-4.48,-54.38,0.82
17.307731,0.6831,-0.0830,0.4058,-5.43,-108.83,-3.72,-4.69,-56.62,0.85
17.337740,0.7144,-0.0884,0.4023,-2.38,-103.27,-3.72,-4.84,-58.73,0.87
17.337740,0.7637,-0.0762,0.3892,0.49,-98.94,-2.38,-4.97,-60.75,0.92
17.399189,0.8076,-0.0459,0.3706,1.95,-90.27,0.00,-5.13,-62.63,1.05
17.399189,0.7974,-0.0088,0.3687,1.16,-87.04,1.10,-5.36,-64.38,1.29
17.427802,0.7871,0.0103,0.3462,0.00,-89.29,0.92,-5.69,-66.13,1.58
17.427802,0.8018,0.0347,0.3052,-0.55,-93.26,0.18,-6.08,-67.94,1.92
17.457714,0.8330,0.0361,0.2549,0.43,-95.15,-0.61,-6.50,-69.82,2.29
17.457714,0.8511,0.0190,0.1904,2.75,-96.37,-1.22,-6.94,-71.73,2.72
17.517772,0.8364,-0.0210,0.1094,4.94,-96.07,-2.32,-7.39,-73.65,3.20
17.517772,0.8345,-0.0269,-0.0083,7.93,-95.52,-3.36,-7.84,-75.56,3.72
17.549302,0.8740,-0.0171,-0.1753,10.25,-81.48,-4.64,-8.20,-77.34,4.21
17.549302,0.8843,0.0112,-0.2754,10.38,-59.39,-5.13,-8.32,-78.74,4.49
17.578799,0.8906,0.0073,-0.3540,8.73,-31.62,-4.70,-8.19,-79.65,4.48
17.578799,0.8701,0.0044,-0.3887,7.32,-0.85,-4.58,-7.70,-79.95,4.06
17.637723,0.8369,0.0117,-0.3457,4.94,25.09,-4.58,-6.86,-79.70,3.26
17.637723,0.8350,0.0078,-0.2661,2.62,48.95,-4.15,-5.92,-78.95,2.31
17.669445,0.8164,-0.0176,-0.1562,1.16,66.65,-4.70,-5.00,-77.78,1.35
17.669445,0.8208,-0.0283,-0.0410,1.53,77.70,-5.55,-4.14,-76.33,0.42
17.699462,0.8076,-0.0190,0.0493,2.99,81.05,-6.71,-3.32,-74.73,-0.44
17.699462,0.8062,-0.0005,0.0923,3.48,78.92,-6.23,-2.61,-73.14,-1.18
17.757727,0.8462,0.0083,0.0894,2.14,81.30,-5.13,-2.10,-71.55,-1.71
17.757727,0.8521,-0.0049,0.0874,1.46,92.77,-5.49,-1.73,-69.81,-2.15
17.787777,0.8101,-0.0186,0.1499,4.94,102.78,-7.69,-1.31,-67.84,-2.60
17.787777,0.7520,-0.0044,0.2310,8.30,101.75,-9.58,-0.78,-65.78,-3.10
17.849589,0.7441,0.0059,0.2632,7.69,100.59,-9.64,-0.26,-63.76,-3.55
17.849589,0.7495,-0.0107,0.2651,5.43,108.15,-9.16,0.14,-61.69,-3.93
17.877914,0.7173,-0.0078,0.3569,5.25,121.34,-8.61,0.44,-59.38,-4.22
17.877914,0.6675,-0.0190,0.4907,7.39,128.72,-9.34,0.71,-56.86,-4.46
17.907683,0.6265,-0.0122,0.5762,10.86,124.02,-8.79,1.01,-54.31,-4.67
17.907683,0.6079,-0.0068,0.6064,13.18,114.32,-6.41,1.32,-51.94,-4.82
17.967755,0.5908,-0.0005,0.5977,10.25,113.22,-4.39,1.54,-49.67,-4.87
17.967755,0.5845,-0.0107,0.5796,6.65,120.79,-4.39,1.66,-47.36,-4.87
17.997794,0.5264,-0.0059,0.6509,9.95,134.64,-6.04,1.77,-44.79,-4.89
17.997794,0.4629,0.0396,0.7964,16.05,137.63,-7.87,2.02,-42.03,-4.94
18.027794,0.4180,0.0601,0.8911,18.13,123.17,-7.69,2.36,-39.41,-5.00
18.027794,0.4443,0.0552,0.8486,16.78,107.85,-5.80,2.69,-37.12,-5.06
18.087758,0.4277,0.0093,0.7832,16.72,110.23,-5.43,2.98,-34.96,-5.06
18.087758,0.3794,0.0254,0.8350,18.74,122.68,-8.73,3.31,-32.63,-5.08
18.117779,0.3691,0.1377,1.0088,11.60,133.61,-10.99,3.61,-30.03,-5.16
18.117779,0.3438,0.1504,1.0864,1.83,129.15,-9.64,3.72,-27.38,-5.25
18.147975,0.3027,0.0713,1.0181,1.77,117.74,-7.51,3.70,-24.90,-5.27
18.147975,0.2563,0.0293,0.9150,10.86,106.63,-7.51,3.81,-22.68,-5.08
18.207727,0.2515,0.0645,0.9009,14.59,110.41,-12.39,4.08,-20.53,-4.96
18.207727,0.2617,0.1118,0.9194,8.42,125.37,-15.56,4.34,-18.16,-4.92
18.237748,0.2031,0.1211,0.9736,0.85,137.63,-15.01,4.43,-15.49,-4.88
18.237748,0.1206,0.1016,1.0146,-0.12,136.23,-12.45,4.42,-12.72,-4.78
18.267739,0.0459,0.0913,1.0444,4.33,125.67,-9.34,4.45,-10.09,-4.64
18.267739,-0.0093,0.1006,1.0864,3.66,115.97,-7.81,4.54,-7.68,-4.47
18.327727,-0.0073,0.1187,1.0815,-4.33,113.65,-7.26,4.52,-5.40,-4.30
18.327727,-0.0391,0.1011,1.0449,-9.16,122.13,-5.80,4.36,-3.04,-4.10
18.357452,-0.1211,0.0757,1.0508,-3.97,122.13,-3.97,4.20,-0.58,-3.87
18.357452,-0.2017,0.0649,1.0415,7.57,110.60,-4.09,4.24,1.75,-3.64
18.387571,-0.2173,0.1450,1.0195,18.07,100.95,-7.32,4.52,3.85,-3.47
18.387571,-0.2046,0.2563,1.0410,22.28,98.82,-8.24,4.94,5.84,-3.34
18.448036,-0.2026,0.2412,1.1064,16.17,102.17,-6.47,5.34,7.85,-3.18
18.448036,-0.1968,0.1860,1.1660,6.47,110.11,-5.55,5.58,9.98,-2.96
18.477510,-0.2334,0.1250,1.2373,2.62,107.79,-4.58,5.69,12.18,-2.71
18.477510,-0.2935,0.1108,1.3335,2.56,96.31,-4.27,5.78,14.23,-2.46
18.507817,-0.3247,0.1689,1.3921,0.55,76.97,-4.09,5.85,15.95,-2.24
18.507817,-0.2939,0.2573,1.3584,-7.87,62.38,-2.99,5.80,17.31,-2.07
18.568148,-0.2930,0.2432,1.2964,-15.75,60.36,-1.22,5.59,18.51,-1.87
18.568148,-0.3574,0.0903,1.2339,-16.91,59.57,-0.06,5.30,19.73,-1.65
18.597775,-0.3892,-0.0063,1.2104,-13.92,47.49,0.73,5.03,20.80,-1.44
18.597775,-0.3721,-0.0244,1.1465,-12.08,31.49,2.69,4.82,21.57,-1.24
18.630807,-0.3394,-0.0054,1.0532,-10.07,21.30,3.60,4.64,22.07,-1.03
18.630807,-0.3145,0.0430,0.9985,-7.69,16.54,2.81,4.50,22.43,-0.84
18.687836,-0.3286,0.0688,0.9966,-5.80,16.24,2.14,4.40,22.75,-0.68
18.687836,-0.3545,0.0679,1.0122,-4.03,12.08,1.34,4.33,23.03,-0.54
18.718897,-0.3760,0.0571,1.0005,-1.46,7.02,0.79,4.29,23.22,-0.42
18.718897,-0.3789,0.0854,1.0156,0.31,2.01,0.00,4.29,23.30,-0.33
18.748155,-0.3765,0.1001,1.0430,0.92,-1.83,-0.31,4.30,23.30,-0.26
18.748155,-0.3838,0.0991,1.0996,0.73,-7.93,-1.04,4.31,23.21,-0.21
18.807822,-0.3535,0.1108,1.1392,-0.85,-15.81,-0.79,4.29,22.97,-0.19
18.807822,-0.3433,0.0923,1.1519,-2.01,-25.02,0.18,4.24,22.56,-0.16
18.838995,-0.3618,0.0713,1.1343,-1.95,-36.62,0.49,4.17,21.95,-0.14
18.838995,-0.3364,0.0942,1.0854,-3.23,-48.16,-0.31,4.09,21.08,-0.16
18.867771,-0.3423,0.0908,1.0830,-5.55,-54.63,-1.16,3.96,20.06,-0.21
18.867771,-0.3447,0.0923,1.1475,-7.51,-62.32,-1.59,3.78,18.90,-0.28
18.927829,-0.3105,0.0840,1.2197,-8.67,-72.51,-0.49,3.57,17.55,-0.36
18.927829,-0.2783,0.0518,1.2466,-7.93,-81.12,1.04,3.36,16.00,-0.41
18.957671,-0.2690,0.0269,1.2446,-3.78,-90.21,3.42,3.21,14.29,-0.44
18.957671,-0.2314,0.0527,1.2256,-1.53,-99.85,5.43,3.15,12.37,-0.43
18.987752,-0.2051,0.0723,1.2085,-2.56,-101.50,6.59,3.10,10.34,-0.40
18.987752,-0.2017,0.0801,1.2495,-2.26,-100.10,6.29,3.04,8.33,-0.35
19.048200,-0.2119,0.1133,1.2939,0.43,-109.07,5.13,3.02,6.25,-0.32
19.048200,-0.1279,0.1270,1.2422,-1.83,-117.19,4.76,3.00,3.96,-0.32
19.077748,-0.0786,0.0898,1.1499,-3.66,-114.75,5.25,2.93,1.62,-0.33
19.077748,-0.0591,0.0845,1.1514,-1.89,-111.82,5.43,2.87,-0.63,-0.32
19.107788,-0.0352,0.1025,1.1831,1.40,-117.07,6.59,2.87,-2.91,-0.29
19.107788,0.0161,0.1426,1.1733,0.18,-122.38,7.69,2.90,-5.33,-0.25
19.167757,0.0469,0.1592,1.1787,-2.99,-120.30,8.67,2.87,-7.77,-0.20
19.167757,0.0342,0.1416,1.2222,-6.65,-125.85,9.77,2.77,-10.21,-0.12
19.197730,0.0361,0.1016,1.1968,-5.86,-143.37,11.54,2.63,-12.91,-0.03
19.197730,0.0894,0.0957,1.0938,-4.09,-154.85,11.47,2.53,-15.94,0.07
19.257846,0.1523,0.0986,1.0225,-6.16,-151.55,11.17,2.43,-19.02,0.17
19.257846,0.1650,0.0537,1.0078,-7.51,-145.63,11.29,2.27,-21.99,0.25
19.287878,0.1675,0.0332,1.0303,-4.82,-147.89,11.35,2.13,-24.91,0.18
19.287878,0.1997,0.0234,1.0039,-1.77,-158.94,11.11,2.05,-27.99,0.12
19.318760,0.2769,0.0044,0.8833,-2.20,-162.78,11.60,2.00,-31.23,0.08
19.318760,0.3096,-0.0063,0.7803,-3.05,-161.87,12.76,1.91,-34.48,0.07
19.377861,0.3525,-0.0181,0.7114,-4.39,-158.33,13.37,1.77,-37.69,0.09
19.377861,0.4009,-0.0254,0.6064,-1.77,-152.28,13.00,1.62,-40.81,0.14
19.407769,0.4316,-0.0063,0.6001,1.10,-141.17,11.17,1.54,-43.73,0.19
19.407769,0.4463,0.0137,0.6211,0.18,-139.22,9.64,1.49,-46.53,0.20
19.437865,0.5044,0.0186,0.5762,-3.17,-139.83,8.97,1.41,-49.32,0.19
19.437865,0.5483,0.0049,0.5068,-4.64,-133.91,8.00,1.28,-52.06,0.18
19.497792,0.5972,0.0288,0.4580,-7.57,-128.17,7.57,1.11,-54.68,0.16
19.497792,0.6328,0.0049,0.3770,-9.03,-120.00,6.53,0.88,-57.16,0.15
19.527460,0.6504,0.0054,0.3423,-6.71,-114.99,5.07,0.68,-59.48,0.13
19.527460,0.6875,0.0015,0.3135,-5.07,-112.98,3.85,0.55,-61.76,0.08
19.557484,0.7397,0.0127,0.2583,-4.58,-108.34,2.62,0.48,-63.97,-0.02
19.557484,0.7495,0.0083,0.2207,-3.66,-103.94,1.65,0.45,-66.08,-0.15
19.618190,0.7764,-0.0171,0.1855,-2.01,-98.82,0.55,0.51,-68.11,-0.35
19.618190,0.8027,-0.0190,0.1655,1.40,-92.96,-1.04,0.70,-70.02,-0.64
19.647875,0.8452,-0.0059,0.1982,2.62,-86.61,-2.44,1.08,-71.80,-1.05
19.647875,0.8618,-0.0103,0.2251,1.83,-81.97,-3.60,1.60,-73.47,-1.63
19.677848,0.8853,0.0044,0.2339,1.46,-80.51,-4.15,2.29,-75.08,-2.38
19.677848,0.8936,0.0098,0.1685,2.44,-82.58,-4.09,3.18,-76.69,-3.32
19.737745,0.9175,0.0220,0.0479,3.72,-80.32,-3.05,4.30,-78.32,-4.47
19.737745,0.8989,0.0195,-0.0889,4.09,-73.00,-1.59,5.58,-79.83,-5.77
19.767722,0.9150,0.0200,-0.2417,3.72,-57.68,-0.31,6.93,-81.13,-7.11
19.767722,0.9102,0.0312,-0.3291,1.40,-32.78,0.61,7.95,-82.01,-8.17
19.798050,0.8574,0.0083,-0.3550,-0.73,-10.74,0.37,8.42,-82.42,-8.71
19.798050,0.8101,-0.0132,-0.3491,-1.89,5.68,-0.43,8.45,-82.45,-8.83
19.857826,0.8164,-0.0093,-0.3237,-1.95,22.95,-0.85,8.10,-82.17,-8.60
19.857826,0.8130,-0.0024,-0.2646,-0.85,42.48,-2.44,7.48,-81.50,-8.06
19.887771,0.8130,0.0264,-0.1763,1.16,60.42,-4.52,6.88,-80.45,-7.53
19.887771,0.8188,0.0244,-0.0918,4.15,72.57,-7.14,6.48,-79.11,-7.14
19.917844,0.8101,0.0200,-0.0249,7.32,80.87,-9.03,6.36,-77.55,-6.96
19.917844,0.8027,0.0103,0.0283,8.00,83.01,-8.30,6.30,-75.90,-6.80
19.977577,0.8286,0.0166,0.0688,3.66,90.88,-6.23,6.06,-74.17,-6.50
19.977577,0.8462,0.0239,0.1074,-1.22,103.09,-5.43,5.61,-72.23,-6.09
20.007609,0.7998,0.0308,0.1689,-3.23,112.73,-5.07,5.08,-70.05,-5.65
20.007609,0.7466,0.0122,0.2002,-0.49,108.64,-5.19,4.65,-67.83,-5.31
20.037583,0.7437,0.0327,0.1895,0.85,106.93,-4.46,4.35,-65.69,-5.04
20.037583,0.7495,0.0352,0.1592,1.77,115.72,-4.52,4.09,-63.48,-4.80
20.097521,0.7095,0.0229,0.2520,6.90,134.34,-6.53,3.91,-60.98,-4.57
20.097521,0.6235,-0.0229,0.4297,15.01,140.81,-10.07,3.96,-58.19,-4.44
20.127879,0.6030,-0.0137,0.5791,19.59,137.76,-12.45,4.26,-55.39,-4.44
20.127879,0.6294,0.0776,0.6768,15.56,131.84,-11.35,4.57,-52.70,-4.45
20.157858,0.6353,0.0947,0.6948,6.59,129.52,-8.54,4.68,-50.09,-4.39
20.157858,0.6133,0.0845,0.7188,0.98,131.84,-6.35,4.58,-47.48,-4.25
20.218146,0.5605,0.0811,0.7852,0.85,131.90,-5.98,4.43,-44.84,-4.09
20.218146,0.5610,0.1167,0.8438,0.67,130.19,-6.77,4.31,-42.21,-3.97
20.248082,0.5151,0.0796,0.8135,5.31,123.54,-6.47,4.25,-39.68,-3.88
20.248082,0.4370,0.0703,0.7783,14.89,110.84,-6.77,4.37,-37.33,-3.82
20.277727,0.4551,0.1328,0.7754,18.49,107.60,-8.91,4.67,-35.17,-3.81
20.277727,0.4424,0.2441,0.8862,14.65,118.96,-11.23,4.98,-32.90,-3.84
20.337731,0.4243,0.2847,0.9917,7.08,125.55,-10.68,5.15,-30.43,-3.86
20.337731,0.3535,0.1724,1.0293,2.50,121.34,-7.75,5.17,-27.94,-3.82
20.368125,0.2822,0.0645,0.9707,4.58,110.47,-5.31,5.17,-25.63,-3.78
20.368125,0.2456,0.0132,0.9365,8.85,106.38,-5.43,5.24,-23.48,-3.74
20.397825,0.2227,0.0347,1.0391,8.18,115.42,-8.18,5.37,-21.26,-3.60
20.397825,0.1792,0.0845,1.1665,0.79,115.30,-10.07,5.42,-18.92,-3.41
20.457585,0.1904,0.1055,1.1460,-6.84,103.21,-9.28,5.33,-16.73,-3.25
20.457585,0.1938,0.0640,1.0234,-10.13,96.92,-6.90,5.13,-14.74,-3.10
20.487617,0.1538,0.0005,0.9873,-5.86,97.29,-5.37,4.94,-12.81,-2.91
20.487617,0.1279,0.0098,1.0732,-3.17,101.14,-7.26,4.83,-10.82,-2.72
20.518192,0.1128,0.0566,1.1470,-4.09,102.29,-7.87,4.75,-8.77,-2.58
20.518192,0.0674,0.0625,1.1655,-2.50,93.63,-7.57,4.66,-6.79,-2.45
20.577794,0.0513,0.0688,1.1411,-0.31,82.82,-7.26,4.64,-5.03,-2.34
20.577794,0.0640,0.1226,1.0977,-0.79,76.90,-7.14,4.63,-3.44,-2.24
20.607812,0.0659,0.1304,1.0342,-2.56,78.06,-5.92,4.58,-1.90,-2.13
20.607812,0.0264,0.1069,0.9927,-2.32,82.46,-4.76,4.53,-0.29,-2.00
20.669282,-0.0234,0.0991,0.9756,-0.49,85.21,-3.66,4.50,1.40,-1.83
20.669282,-0.0620,0.1636,0.9634,-0.55,84.90,-0.24,4.50,3.10,-1.63
20.697755,-0.1035,0.2324,0.9443,-5.62,85.33,5.19,4.45,4.78,-1.33
20.697755,-0.1177,0.2983,0.9316,-15.81,92.16,10.50,4.26,6.53,-0.92
20.727705,-0.1631,0.2788,0.9541,-24.41,103.70,14.16,3.90,8.46,-0.40
20.727705,-0.2607,0.1562,1.0483,-26.67,109.74,16.11,3.46,10.58,0.17
20.787901,-0.3740,0.0537,1.1548,-26.92,102.05,15.38,3.01,12.69,0.74
20.787901,-0.4038,0.0151,1.1851,-26.37,91.49,13.12,2.58,14.58,1.25
20.818313,-0.3984,0.0073,1.1660,-23.38,81.54,10.31,2.16,16.29,1.68
20.818313,-0.4067,-0.0488,1.1357,-13.00,72.39,6.04,1.87,17.81,2.01
20.848115,-0.4160,-0.1367,1.1382,1.04,62.74,0.06,1.80,19.16,2.22
20.848115,-0.3979,-0.1318,1.1675,11.54,49.80,-4.94,1.94,20.29,2.29
20.908802,-0.3750,-0.0728,1.1489,15.56,36.99,-7.32,2.20,21.15,2.28
20.908802,-0.3311,-0.0044,1.1064,14.95,31.98,-8.73,2.47,21.84,2.22
20.937754,-0.3052,0.0615,1.1084,11.90,32.41,-8.06,2.69,22.49,2.15
20.937754,-0.3091,0.0444,1.1382,8.61,27.34,-6.84,2.85,23.11,2.10
20.968307,-0.3018,0.0464,1.1426,4.82,17.76,-4.46,2.94,23.57,2.08
20.968307,-0.3237,0.0840,1.1128,1.59,9.34,-2.50,2.99,23.83,2.10
21.027798,-0.3521,0.1118,1.0752,-0.61,2.87,-1.34,2.98,23.96,2.14
21.027798,-0.3672,0.1245,1.0776,-2.26,-1.71,-1.28,2.93,23.97,2.17
21.058134,-0.3916,0.1099,1.0981,-2.62,-9.16,-1.59,2.87,23.86,2.20
21.058134,-0.3901,0.1108,1.0747,-3.42,-18.25,-2.26,2.78,23.58,2.20
21.087985,-0.3740,0.1157,1.0410,-3.66,-22.09,-3.54,2.67,23.18,2.17
21.087985,-0.3730,0.0889,1.0659,-2.87,-25.82,-5.74,2.55,22.70,2.10
21.148081,-0.3496,0.0513,1.1240,-2.62,-30.70,-6.77,2.43,22.14,1.98
21.148081,-0.3481,-0.0103,1.1851,-2.08,-39.18,-6.29,2.31,21.46,1.86
21.177756,-0.3442,-0.0405,1.2324,-0.31,-53.59,-4.76,2.22,20.53,1.75
21.177756,-0.3091,-0.0122,1.2524,0.18,-68.79,-2.75,2.17,19.30,1.65
21.207716,-0.2930,0.0176,1.2319,-2.14,-78.55,-0.67,2.11,17.81,1.58
21.207716,-0.3027,0.0444,1.2080,-3.17,-86.98,-0.31,2.02,16.16,1.54
21.268461,-0.2896,0.0483,1.1865,-4.46,-90.15,-0.06,1.91,14.38,1.49
21.268461,-0.3081,0.0361,1.1860,0.00,-95.64,-1.10,1.83,12.53,1.44
21.297777,-0.2720,0.0684,1.2554,6.47,-104.19,-2.14,1.87,10.53,1.36
21.297777,-0.2368,0.1255,1.3076,7.26,-112.67,-3.23,1.99,8.36,1.24
21.327708,-0.2051,0.1333,1.2773,2.87,-117.55,-3.23,2.07,6.05,1.09
21.327708,-0.1943,0.1064,1.2686,-0.12,-121.22,-1.71,2.07,3.67,0.97
21.387812,-0.1401,0.1499,1.2988,-3.11,-131.59,0.43,2.04,1.15,0.87
21.387812,-0.0859,0.1509,1.2920,-11.84,-137.70,3.97,1.88,-1.54,0.82
21.418513,-0.0898,0.0542,1.1509,-15.62,-143.62,5.07,1.59,-4.37,0.83
21.418513,-0.0469,0.0513,1.0864,-14.16,-143.07,4.39,1.30,-7.23,0.86
21.448021,0.0068,0.0737,1.1030,-13.00,-144.71,5.07,1.03,-10.11,0.88
21.448021,0.0259,0.0444,1.0850,-12.15,-150.70,6.35,0.78,-13.06,0.94
21.507768,0.0903,0.0225,0.9922,-11.23,-151.00,4.70,0.55,-16.11,1.02
21.507768,0.1309,0.0244,0.9629,-11.05,-145.45,3.91,0.33,-19.06,1.02
21.537764,0.1499,0.0205,0.9595,-9.95,-149.60,4.33,0.12,-22.00,0.96
21.537764,0.1919,0.0078,0.9487,-9.52,-152.40,4.33,-0.05,-25.02,0.87
21.568282,0.2480,0.0015,0.8721,-8.85,-152.47,3.23,-0.24,-28.08,0.82
21.568282,0.2856,0.0083,0.8149,-7.81,-148.56,2.69,-0.41,-31.08,0.75
21.630416,0.3184,0.0215,0.7573,-8.12,-146.79,2.75,-0.57,-34.03,0.69
21.630416,0.3511,0.0464,0.6821,-10.38,-146.73,2.62,-0.77,-36.95,0.64
21.657767,0.4058,0.0542,0.6079,-12.94,-141.66,2.01,-1.02,-39.85,0.60
21.657767,0.4243,0.0254,0.5811,-14.34,-137.70,2.26,-1.32,-42.62,0.58
21.687821,0.4839,0.0049,0.5786,-14.40,-134.89,2.38,-1.65,-45.35,0.58
21.687821,0.5317,-0.0581,0.5459,-11.47,-130.62,1.83,-1.99,-48.00,0.60
21.748049,0.5908,-0.0679,0.5654,-7.32,-123.90,0.37,-2.23,-50.54,0.62
21.748049,0.6094,-0.0688,0.5957,-4.94,-121.09,-0.73,-2.40,-52.97,0.60
21.777763,0.6426,-0.0630,0.5859,-1.53,-125.73,-1.46,-2.49,-55.43,0.58
21.777763,0.6831,-0.0630,0.5054,2.87,-128.30,-2.32,-2.49,-57.97,0.53
21.808670,0.7314,-0.0269,0.4385,5.92,-127.75,-3.60,-2.37,-60.53,0.43
21.808670,0.7749,-0.0122,0.3774,4.82,-120.91,-3.30,-2.19,-63.01,0.29
21.868650,0.8027,0.0137,0.3389,2.38,-115.42,-2.26,-2.06,-65.37,0.16
21.868650,0.8076,0.0386,0.3306,-1.59,-111.27,-1.04,-2.03,-67.63,0.08
21.897724,0.8022,0.0498,0.3164,-6.53,-112.49,0.00,-2.16,-69.85,0.06
21.897724,0.8086,0.0220,0.2280,-9.40,-111.82,-0.55,-2.42,-72.10,0.09
21.928586,0.8311,0.0215,0.1538,-8.12,-107.06,-2.50,-2.64,-74.28,0.07
21.928586,0.8555,0.0083,0.1045,-6.23,-99.24,-4.58,-2.66,-76.34,-0.12
21.989088,0.8145,-0.0317,0.0166,-2.38,-93.81,-7.20,-2.36,-78.26,-0.58
21.989088,0.8315,-0.0005,-0.0850,0.92,-83.44,-10.07,-1.46,-80.04,-1.58
22.019054,0.8188,0.0166,-0.1323,1.34,-70.37,-11.05,0.16,-81.56,-3.25
22.019054,0.8242,0.0229,-0.1719,-0.18,-56.34,-10.07,2.40,-82.81,-5.56
22.077885,0.8364,0.0098,-0.1978,-3.60,-42.42,-7.57,4.88,-83.77,-8.15
22.077885,0.8608,-0.0229,-0.2500,-7.02,-27.77,-5.07,7.16,-84.44,-10.62
22.107690,0.8638,-0.0620,-0.3125,-5.98,-13.24,-3.66,8.87,-84.81,-12.54
22.107690,0.8506,-0.0659,-0.3540,-2.01,0.79,-2.93,9.90,-84.91,-13.72
22.137493,0.8618,-0.0283,-0.3862,1.22,16.66,-2.44,10.12,-84.72,-14.00
22.137493,0.8804,0.0288,-0.3755,1.53,36.87,-1.28,9.30,-84.18,-13.21
22.197833,0.8789,0.0459,-0.3188,1.77,57.62,-1.22,7.82,-83.23,-11.76
22.197833,0.8677,0.0361,-0.2104,3.66,72.14,-1.46,6.43,-81.92,-10.37
22.227728,0.8481,0.0161,-0.1055,4.76,79.59,-0.85,5.31,-80.40,-9.21
22.227728,0.8457,-0.0068,-0.0347,4.09,85.27,0.00,4.38,-78.76,-8.23
22.257683,0.8364,-0.0273,0.0405,1.34,90.82,0.73,3.55,-77.00,-7.39
22.257683,0.8428,-0.0264,0.0884,-2.38,95.46,2.01,2.77,-75.14,-6.67
22.318284,0.8232,0.0054,0.1060,-3.05,96.07,4.21,1.98,-73.23,-5.98
22.318284,0.8213,0.0000,0.1162,-1.34,101.75,4.58,1.28,-71.27,-5.36
22.348148,0.8076,0.0044,0.1699,2.50,110.53,3.54,0.79,-69.15,-4.89
22.348148,0.7432,-0.0312,0.2603,9.28,112.18,2.01,0.54,-66.91,-4.56
22.378176,0.7153,-0.0410,0.3486,14.10,110.60,0.37,0.55,-64.69,-4.36
22.378176,0.7671,0.0415,0.4297,10.74,115.78,-0.31,0.65,-62.45,-4.25
22.437787,0.7446,0.0103,0.5059,4.52,124.45,1.40,0.61,-60.03,-4.10
22.437787,0.7031,-0.0093,0.6011,-0.85,124.02,3.17,0.40,-57.55,-3.89
22.469283,0.6636,-0.0054,0.5786,-2.32,118.59,3.36,0.14,-55.12,-3.69
22.469283,0.6396,0.0073,0.5215,2.26,116.52,1.89,-0.04,-52.79,-3.54
22.499127,0.6094,-0.0200,0.5469,7.26,121.58,-1.53,-0.02,-50.42,-3.49
22.499127,0.6182,0.0000,0.6543,9.09,130.43,-3.91,0.14,-47.89,-3.55
22.557556,0.5942,0.0283,0.7656,8.18,132.69,-3.05,0.31,-45.24,-3.60
22.557556,0.5410,0.0073,0.7671,9.22,126.59,-1.95,0.44,-42.65,-3.61
22.588086,0.5156,0.0244,0.7808,11.84,123.90,-3.17,0.62,-40.16,-3.63
22.588086,0.5107,0.0669,0.8765,8.79,125.49,-2.99,0.81,-37.67,-3.64
22.619168,0.4927,0.0894,0.9673,1.95,126.16,-2.01,0.87,-35.14,-3.65
22.619168,0.4395,0.0513,1.0068,-0.73,117.07,-0.49,0.82,-32.70,-3.63
22.677757,0.4395,0.0308,0.9634,1.46,106.87,0.31,0.76,-30.48,-3.59
22.677757,0.3945,0.0054,0.9473,5.37,107.12,0.12,0.79,-28.35,-3.54
22.707694,0.3525,0.0078,0.9707,6.65,105.10,-1.28,0.87,-26.22,-3.53
22.707694,0.3174,0.0068,0.9834,4.70,103.70,-2.26,0.97,-24.14,-3.57
22.737541,0.2617,0.0635,1.0601,-0.55,101.38,-2.81,1.01,-22.08,-3.46
22.737541,0.2446,0.1147,1.0874,-13.12,95.58,-2.14,0.86,-20.11,-3.37
22.797757,0.2515,0.1255,1.0010,-23.80,88.07,-0.49,0.45,-18.28,-3.27
22.797757,0.2676,0.0752,0.8794,-26.37,88.32,0.61,-0.09,-16.53,-3.14
22.827743,0.2324,-0.0649,0.7896,-16.05,100.95,0.49,-0.54,-14.64,-3.03
22.827743,0.1104,-0.1460,0.9097,3.42,108.70,-1.83,-0.66,-12.51,-2.94
22.857793,0.0566,-0.0884,1.1240,14.65,102.29,-4.88,-0.44,-10.39,-2.92
22.857793,0.0542,0.0254,1.1885,14.34,88.44,-4.39,-0.13,-8.48,-2.92
22.917572,0.0742,0.1069,1.0742,9.03,81.67,-2.99,0.11,-6.81,-2.88
22.917572,0.0503,0.0728,0.9438,7.63,88.68,-4.27,0.27,-5.11,-2.84
22.947761,-0.0239,-0.0298,0.9487,12.02,102.17,-7.75,0.47,-3.19,-2.84
22.947761,-0.0791,-0.0176,1.0093,19.23,106.26,-9.22,0.79,-1.07,-2.88
22.977690,-0.1162,0.0078,1.0288,23.62,102.54,-7.93,1.23,1.01,-2.89
22.977690,-0.1299,0.0693,1.0303,21.61,105.35,-6.96,1.69,3.09,-2.87
23.038154,-0.1504,0.1055,1.0693,15.44,116.33,-6.41,2.05,5.31,-2.81
23.038154,-0.2158,0.0850,1.1733,9.95,116.64,-4.64,2.31,7.68,-2.71
23.069549,-0.2505,0.0347,1.2393,7.45,99.61,-2.14,2.49,9.85,-2.56
23.069549,-0.2437,0.0713,1.2271,4.88,82.09,-0.85,2.63,11.64,-2.40
23.097529,-0.2559,0.1289,1.1929,2.50,73.24,-2.20,2.72,13.18,-2.24
23.097529,-0.2534,0.1211,1.1699,2.50,68.79,-5.62,2.76,14.60,-2.15
23.157615,-0.2769,0.0620,1.1445,8.91,64.21,-8.48,2.87,15.94,-2.13
23.157615,-0.2939,0.0767,1.1665,11.54,55.24,-9.77,3.06,17.14,-2.17
23.187885,-0.2739,0.1675,1.1777,4.70,49.80,-8.73,3.20,18.19,-2.21
23.187885,-0.2915,0.1616,1.1606,-5.86,46.94,-5.55,3.16,19.17,-2.21
23.217784,-0.3252,0.0942,1.1211,-12.33,41.08,-2.69,2.96,20.06,-2.16
23.217784,-0.3394,0.0186,1.0762,-10.93,32.90,-0.98,2.71,20.80,-2.07
23.277767,-0.3550,-0.0142,1.0850,-6.65,23.93,0.12,2.55,21.36,-1.97
23.277767,-0.3506,0.0190,1.0664,-4.52,12.33,0.73,2.47,21.71,-1.87
23.307822,-0.3252,0.0674,1.0229,-6.90,9.28,0.92,2.36,21.91,-1.77
23.307822,-0.3438,0.0073,0.9561,-5.55,8.91,0.73,2.24,22.09,-1.68
23.337749,-0.3745,-0.0317,0.9600,-1.46,8.97,-0.61,2.18,22.27,-1.59
23.337749,-0.3877,-0.0181,0.9941,2.08,5.74,-2.08,2.18,22.43,-1.55
23.397490,-0.3770,0.0151,1.0659,4.64,1.83,-2.93,2.22,22.51,-1.54
23.397490,-0.3730,0.0269,1.1743,5.86,-4.94,-2.56,2.31,22.48,-1.54
23.427662,-0.3564,0.0708,1.2715,4.39,-19.96,-2.01,2.40,22.24,-1.54
23.427662,-0.3374,0.1250,1.2100,-1.65,-34.00,-0.73,2.40,21.68,-1.54
23.488017,-0.3267,0.0864,1.0718,-5.80,-37.41,-1.28,2.29,20.96,-1.55
23.488017,-0.3491,0.0532,1.0244,-6.84,-39.25,-1.53,2.13,20.19,-1.57
23.517936,-0.3389,0.0327,1.0186,-5.37,-41.32,-1.89,1.97,19.39,-1.59
23.517936,-0.3188,0.0376,1.0991,-1.95,-46.14,-2.01,1.87,18.53,-1.63
23.547608,-0.3052,0.0293,1.1802,-2.69,-52.49,-0.43,1.80,17.55,-1.64
23.547608,-0.2764,0.0435,1.1709,-6.16,-62.87,1.16,1.69,16.38,-1.64
23.607826,-0.2656,0.0469,1.1099,-7.39,-70.19,2.75,1.53,15.04,-1.60
23.607826,-0.2646,0.0161,1.0669,-3.60,-71.96,2.32,1.41,13.61,-1.56
23.638113,-0.2554,0.0400,1.1265,-0.31,-72.08,1.04,1.37,12.17,-1.53
23.638113,-0.2144,0.0317,1.1201,-1.83,-76.72,1.10,1.35,10.68,-1.52
23.667760,-0.1680,0.0435,1.0635,-3.23,-77.88,1.40,1.28,9.12,-1.51
23.667760,-0.1421,0.0752,1.0166,-2.44,-77.64,1.46,1.21,7.56,-1.48
23.727782,-0.1372,0.0825,1.0020,-0.61,-76.42,1.59,1.18,6.03,-1.46
23.727782,-0.1245,0.0815,1.0000,1.16,-77.39,1.59,1.18,4.49,-1.43
23.757717,-0.1060,0.0645,0.9971,1.65,-77.45,0.43,1.21,2.94,-1.41
23.757717,-0.0757,0.0566,1.0024,-0.43,-72.57,0.43,1.21,1.44,-1.41
23.788015,-0.0669,0.0249,0.9805,-0.55,-69.52,0.18,1.20,0.02,-1.40
23.788015,-0.0449,0.0156,0.9961,-0.49,-68.85,0.31,1.19,-1.35,-1.40
23.847871,-0.0239,-0.0156,0.9624,-0.92,-70.19,0.73,1.18,-2.74,-1.38
23.847871,0.0107,0.0122,0.9370,-0.67,-69.76,0.85,1.16,-4.14,-1.37
23.877824,0.0479,0.0308,0.9316,-2.81,-64.09,1.34,1.13,-5.49,-1.34
23.877824,0.0469,0.0098,0.9380,-3.66,-58.90,1.71,1.06,-6.70,-1.30
23.907784,0.0737,0.0239,0.9521,-2.93,-57.68,1.83,1.00,-7.87,-1.25
23.907784,0.0923,0.0254,0.9531,-3.78,-59.08,2.87,0.93,-9.03,-1.19
23.967820,0.1167,0.0308,0.9302,-4.15,-60.12,3.48,0.84,-10.23,-1.10
23.967820,0.1411,0.0571,0.9526,-5.00,-58.53,3.30,0.75,-11.43,-1.02
23.997795,0.1504,0.0630,1.0171,-6.59,-56.46,3.72,0.62,-12.57,-0.93
23.997795,0.1748,0.0444,1.0259,-6.96,-60.97,3.48,0.47,-13.74,-0.83
24.027710,0.2129,0.0498,0.9980,-6.90,-59.75,2.93,0.32,-14.95,-0.76
24.027710,0.2246,0.0317,0.9966,-7.02,-60.73,2.32,0.18,-16.16,-0.68
24.088198,0.2554,0.0142,0.9824,-6.29,-63.23,2.08,0.04,-17.39,-0.62
24.088198,0.2666,0.0054,1.0215,-5.00,-63.29,1.59,-0.07,-18.65,-0.53
24.118183,0.3037,0.0259,1.0283,-5.00,-68.18,1.34,-0.17,-19.97,-0.48
24.118183,0.3418,0.0093,0.9873,-6.10,-69.95,1.34,-0.28,-21.36,-0.43
24.147802,0.3477,-0.0054,0.9658,-5.49,-72.33,1.04,-0.40,-22.78,-0.42
24.147802,0.3628,0.0010,0.9810,-5.43,-75.56,0.18,-0.50,-24.25,-0.51
24.207771,0.4023,0.0044,0.9731,-6.77,-76.78,-0.92,-0.60,-25.78,-0.60
24.207771,0.4082,0.0146,0.9761,-8.06,-78.37,-1.28,-0.73,-27.32,-0.73
24.237747,0.4380,0.0073,0.9297,-9.16,-84.41,-0.79,-0.87,-28.95,-0.85
24.237747,0.4453,0.0068,0.8818,-9.40,-88.13,-0.67,-1.05,-30.67,-0.94
24.267838,0.4722,0.0166,0.8345,-7.87,-90.33,-1.22,-1.20,-32.46,-1.03
24.267838,0.4917,0.0410,0.8394,-6.71,-89.23,-3.17,-1.31,-34.26,-1.15
24.327773,0.4902,0.0337,0.8804,-8.91,-85.57,-5.62,-1.40,-36.00,-1.31
24.327773,0.5044,0.0112,0.8789,-10.68,-87.59,-8.00,-1.49,-37.73,-1.54
24.357962,0.5435,0.0000,0.8496,-10.62,-89.60,-8.85,-1.57,-39.49,-1.82
24.357962,0.5679,-0.0298,0.8047,-8.67,-95.09,-8.24,-1.61,-41.34,-2.11
24.388082,0.6172,-0.0469,0.7524,-7.57,-99.43,-7.08,-1.64,-43.29,-2.37
24.388082,0.6597,-0.0762,0.6870,-8.36,-98.94,-4.94,-1.68,-45.27,-2.59
24.447799,0.6670,-0.0991,0.6538,-8.24,-98.51,-2.38,-1.79,-47.24,-2.74
24.447799,0.6895,-0.0591,0.6118,-6.35,-100.89,-0.49,-1.92,-49.23,-2.81
24.477848,0.7168,-0.0308,0.5728,-4.39,-99.24,-0.12,-2.05,-51.23,-2.85
24.477848,0.7222,-0.0078,0.5635,-2.81,-99.43,-0.37,-2.14,-53.21,-2.87
24.507767,0.7266,0.0117,0.5537,-2.87,-103.03,-0.85,-2.22,-55.23,-2.91
24.507767,0.7290,0.0469,0.5371,-5.31,-107.91,-1.04,-2.32,-57.33,-2.95
24.567561,0.7285,0.0703,0.4932,-7.39,-112.37,-2.26,-2.46,-59.54,-3.00
24.567561,0.7422,0.0557,0.4761,-6.47,-114.14,-2.75,-2.58,-61.80,-3.08
24.597525,0.7710,-0.0068,0.4897,-8.30,-119.75,-1.10,-2.75,-64.13,-3.11
24.597525,0.8262,-0.0557,0.4072,-11.17,-122.74,1.59,-3.10,-66.57,-3.00
24.630231,0.8403,-0.0815,0.2485,-8.97,-113.53,2.75,-3.65,-68.93,-2.70
24.630231,0.8247,-0.0752,0.1636,-2.62,-107.30,1.28,-4.16,-71.12,-2.35
24.688082,0.8335,-0.0244,0.1484,2.99,-103.09,0.00,-4.54,-73.21,-1.99
24.688082,0.8755,0.0151,0.1274,5.62,-99.30,-1.22,-4.82,-75.23,-1.68
24.718140,0.9199,0.0220,0.1221,6.90,-91.37,-1.71,-5.06,-77.14,-1.35
24.718140,0.9287,0.0386,0.1504,7.69,-85.75,-1.83,-5.30,-78.88,-1.01
24.747806,0.9331,0.0586,0.1787,5.43,-87.65,-1.22,-5.71,-80.61,-0.52
24.747806,0.9390,0.0254,0.0977,0.43,-90.21,-0.24,-6.61,-82.38,0.39
24.807887,0.9141,-0.0435,-0.0776,-1.22,-88.75,0.06,-8.48,-84.17,2.20
24.807887,0.8809,-0.0811,-0.2769,0.67,-80.20,-1.65,-11.79,-85.84,5.44
24.837759,0.8823,-0.0713,-0.4399,4.21,-58.96,-3.72,-17.31,-87.21,10.97
24.837759,0.8550,-0.0415,-0.5073,9.03,-33.75,-5.37,-25.19,-88.10,18.92
24.898129,0.8452,-0.0039,-0.4795,12.63,-9.89,-5.49,-30.53,-88.53,24.43
24.898129,0.8467,0.0483,-0.4033,10.80,13.85,-3.66,-21.49,-88.52,15.57
24.927661,0.8379,0.0649,-0.3071,5.98,34.00,-1.22,-10.82,-88.04,5.02
24.927661,0.8491,0.0317,-0.2236,3.72,47.79,-0.12,-6.59,-87.21,0.81
24.957766,0.8818,0.0161,-0.1367,3.97,59.14,-0.06,-4.73,-86.13,-1.02
24.957766,0.8848,-0.0029,-0.0547,4.52,65.49,-0.55,-3.63,-84.87,-2.10
25.017834,0.8892,-0.0366,0.0005,4.64,67.69,-0.79,-2.88,-83.54,-2.80
25.017834,0.8916,-0.0210,0.0303,1.10,68.79,1.28,-2.57,-82.17,-3.11
25.047802,0.8999,-0.0269,-0.0034,-5.00,71.90,4.15,-2.83,-80.78,-2.94
25.047802,0.8877,-0.0430,-0.0366,-9.09,80.75,5.92,-3.37,-79.25,-2.60
25.077847,0.8438,-0.0415,-0.0259,-8.61,88.62,5.74,-3.86,-77.55,-2.35
25.077847,0.8203,-0.0176,0.0205,-4.09,94.36,4.33,-4.09,-75.71,-2.31
25.138006,0.8003,-0.0347,0.0854,2.20,97.53,2.38,-4.03,-73.78,-2.44
25.138006,0.7959,-0.0532,0.1025,8.12,97.78,1.22,-3.76,-71.83,-2.66
25.167795,0.8359,-0.0615,0.1470,14.65,105.53,0.49,-3.35,-69.81,-2.89
25.167795,0.8252,-0.0439,0.2866,17.70,111.39,0.92,-2.89,-67.63,-3.09
25.197807,0.7881,-0.0161,0.4512,16.72,112.12,3.30,-2.52,-65.38,-3.17
25.197807,0.7876,-0.0186,0.5269,13.55,103.33,6.16,-2.36,-63.23,-3.07
25.257916,0.7773,-0.0532,0.5322,12.21,101.32,6.10,-2.30,-61.20,-2.91
25.257916,0.7905,0.0054,0.5957,12.57,104.68,5.07,-2.20,-59.14,-2.79
25.288058,0.7378,-0.0112,0.6460,12.45,99.24,4.33,-2.07,-57.08,-2.71
25.288058,0.7241,-0.0181,0.6172,11.47,90.33,5.13,-1.94,-55.20,-2.63
25.317977,0.7324,0.0010,0.5649,6.71,90.64,3.97,-1.88,-53.41,-2.54
25.317977,0.7207,0.0391,0.5854,3.11,103.15,1.71,-1.85,-51.48,-2.52
25.377787,0.6685,0.0454,0.6616,2.26,111.51,0.24,-1.81,-49.31,-2.57
25.377787,0.5996,0.0171,0.7134,5.43,106.81,-1.22,-1.71,-47.11,-2.66
25.407764,0.5840,0.0439,0.7173,7.87,96.44,-1.77,-1.53,-45.09,-2.76
25.407764,0.6138,0.0244,0.7002,9.40,99.43,-3.72,-1.31,-43.15,-2.89
25.437868,0.5508,-0.0249,0.7598,12.27,105.22,-5.43,-1.02,-41.09,-3.06
25.437868,0.5220,-0.0254,0.7988,15.01,104.74,-7.14,-0.65,-38.98,-3.25
25.497790,0.4976,-0.0044,0.7930,14.59,100.65,-6.10,-0.27,-36.93,-3.42
25.497790,0.4956,0.0195,0.7769,11.05,99.12,-3.54,0.03,-34.94,-3.54
25.527695,0.4644,-0.0239,0.7412,7.20,103.03,-1.77,0.20,-32.92,-3.59
25.527695,0.4141,-0.0483,0.7554,2.87,108.58,-3.91,0.30,-30.81,-3.63
25.557757,0.3945,0.0371,0.8213,-2.08,121.58,-6.47,0.32,-28.51,-3.71
25.557757,0.3159,0.0151,0.9390,1.77,126.16,-5.80,0.32,-25.99,-3.81
25.617776,0.2705,-0.0781,1.0415,9.03,116.94,-6.59,0.47,-23.55,-3.80
25.617776,0.2983,-0.0215,1.0762,12.76,105.22,-6.41,0.72,-21.34,-3.80
25.647806,0.3032,0.0625,1.0542,11.35,98.82,-5.68,0.98,-19.31,-3.80
25.647806,0.2803,0.0767,1.0083,7.81,98.45,-5.37,1.18,-17.34,-3.75
25.677651,0.2271,0.0537,1.0059,6.59,102.84,-6.16,1.32,-15.33,-3.71
25.677651,0.1494,0.0210,1.0610,5.98,103.39,-7.63,1.46,-13.25,-3.68
25.738011,0.1025,0.0488,1.1133,5.98,98.33,-9.64,1.59,-11.22,-3.69
25.738011,0.0771,0.0635,1.1284,7.32,89.72,-10.44,1.75,-9.33,-3.72
25.767752,0.0654,0.0703,1.1265,8.30,83.01,-10.80,1.92,-7.61,-3.78
25.767752,0.0513,0.0786,1.1245,6.47,78.49,-11.84,2.09,-5.99,-3.85
25.797627,0.0337,0.0791,1.1001,2.99,77.09,-12.82,2.20,-4.42,-3.93
25.797627,0.0166,0.0537,1.0737,-2.01,74.65,-14.34,2.22,-2.89,-4.04
25.857751,0.0015,0.0986,1.0474,-9.70,76.90,-15.69,2.11,-1.37,-4.19
25.857751,-0.0649,0.1851,1.0884,-15.62,84.47,-13.00,1.85,0.27,-4.31
25.888079,-0.1113,0.0967,1.1660,-18.62,80.69,-11.60,1.51,1.94,-4.40
25.888079,-0.0791,0.0366,1.1675,-17.52,67.81,-8.00,1.13,3.44,-4.47
25.918037,-0.0566,-0.0015,1.0913,-9.09,57.07,-4.27,0.85,4.67,-4.47
25.918037,-0.0771,-0.0298,1.0415,0.43,56.15,-3.23,0.77,5.80,-4.43
25.977835,-0.1260,-0.0352,1.0303,6.90,58.11,-3.72,0.85,6.94,-4.39
25.977835,-0.1670,-0.0020,1.0117,10.56,63.60,-4.88,1.03,8.16,-4.37
26.007804,-0.2114,0.0225,1.0264,12.39,69.40,-7.14,1.25,9.51,-4.37
26.007804,-0.2271,0.0308,1.0654,12.15,69.09,-8.97,1.48,10.91,-4.40
26.038339,-0.2520,0.0352,1.0938,11.11,63.11,-9.64,1.69,12.25,-4.45
26.038339,-0.2559,0.0752,1.1040,10.93,52.86,-9.28,1.88,13.41,-4.52
26.097859,-0.2319,0.1055,1.1030,9.46,44.68,-7.63,2.07,14.39,-4.58
26.097859,-0.2036,0.1226,1.0820,5.68,42.85,-4.70,2.20,15.26,-4.58
26.127854,-0.2441,0.1079,1.0537,1.22,43.46,-2.56,2.26,16.12,-4.54
26.127854,-0.2954,0.0952,1.0088,-4.09,43.52,-1.34,2.24,17.00,-4.45
26.157821,-0.3438,0.0977,0.9541,-8.30,42.97,-0.85,2.11,17.86,-4.36
26.157821,-0.3633,0.0879,0.9087,-7.81,44.01,-0.92,1.95,18.73,-4.26
26.218146,-0.3999,0.0415,0.9370,-3.48,46.14,-1.89,1.85,19.64,-4.17
26.218146,-0.3716,0.0244,1.0557,0.18,47.06,-2.20,1.82,20.58,-4.10
26.248119,-0.3701,0.0347,1.2002,-1.53,38.45,0.06,1.83,21.46,-4.00
26.248119,-0.3652,-0.0137,1.2031,-4.64,20.63,2.62,1.78,22.04,-3.87
26.307481,-0.3496,-0.0352,1.1074,-1.59,6.71,2.62,1.74,22.29,-3.74
26.307481,-0.3325,0.0195,1.0508,3.23,-2.50,0.73,1.77,22.31,-3.64
26.338425,-0.3042,0.0610,1.0273,4.33,-3.85,-0.49,1.85,22.24,-3.58
26.338425,-0.3062,0.0645,1.0156,2.62,-3.66,-0.06,1.92,22.16,-3.53
26.367735,-0.3428,0.0576,1.0498,-0.49,-4.03,0.43,1.94,22.09,-3.47
26.367735,-0.3467,0.0728,1.1021,-3.91,-8.91,0.85,1.90,21.97,-3.41
26.427508,-0.3496,0.0474,1.1089,-6.96,-17.82,1.40,1.78,21.70,-3.33
26.427508,-0.3452,-0.0054,1.0957,-6.16,-25.88,0.85,1.64,21.25,-3.27
26.457544,-0.3413,-0.0054,1.1572,-2.20,-33.63,-0.55,1.55,20.65,-3.24
26.457544,-0.3203,0.0342,1.2817,-1.04,-42.97,-0.79,1.50,19.89,-3.24
26.488471,-0.2998,0.0762,1.3818,-2.93,-58.59,-0.24,1.44,18.87,-3.24
26.488471,-0.2915,0.0635,1.3530,-6.23,-77.45,0.55,1.32,17.50,-3.25
26.547720,-0.2573,0.0220,1.2397,-6.96,-89.66,1.40,1.16,15.80,-3.25
26.547720,-0.2354,0.0000,1.1533,-5.37,-95.09,2.44,1.03,13.94,-3.23
26.578667,-0.2476,-0.0098,1.0908,-4.15,-99.61,2.87,0.93,11.99,-3.20
26.578667,-0.2280,0.0112,1.0239,-3.42,-95.34,2.08,0.85,10.03,-3.17
26.608193,-0.2046,0.0371,1.0298,-3.30,-90.82,0.49,0.77,8.17,-3.15
26.608193,-0.1729,0.0518,1.0127,-1.83,-90.09,-0.18,0.70,6.37,-3.16
26.667769,-0.1714,0.0708,1.0171,0.98,-93.69,-0.24,0.69,4.54,-3.18
26.667769,-0.1274,0.0747,0.9541,5.13,-97.96,-0.67,0.75,2.61,-3.20
26.697858,-0.0820,0.1172,0.9238,4.88,-93.51,-1.04,0.86,0.69,-3.22
26.697858,-0.0503,0.1411,0.9595,-0.85,-87.59,-1.16,0.90,-1.12,-3.26
26.727733,-0.0127,0.0659,0.9736,-6.96,-84.59,0.92,0.82,-2.83,-3.27
26.727733,-0.0078,0.0244,0.9868,-11.47,-84.05,3.30,0.63,-4.51,-3.22
26.788791,-0.0063,0.0093,0.9336,-14.83,-83.19,4.88,0.35,-6.19,-3.14
26.788791,0.0342,-0.0347,0.8799,-12.33,-76.11,5.19,0.06,-7.79,-3.02
26.817769,0.0615,-0.0547,0.9521,-8.12,-68.05,4.70,-0.15,-9.22,-2.89
26.817769,0.0903,-0.0508,1.0566,-6.23,-65.25,4.58,-0.30,-10.55,-2.77
26.847761,0.0703,-0.0244,1.1372,-5.49,-75.74,4.76,-0.43,-11.93,-2.64
26.847761,0.1396,-0.0435,1.0215,-5.74,-87.22,4.88,-0.57,-13.60,-2.52
26.907873,0.2031,-0.0542,0.9209,-3.97,-85.21,5.43,-0.69,-15.33,-2.38
26.907873,0.2285,-0.0034,0.8735,-2.93,-82.64,5.55,-0.79,-17.00,-2.23
26.938787,0.2563,-0.0073,0.8037,-2.26,-78.55,4.94,-0.87,-18.62,-2.08
26.938787,0.3057,0.0229,0.8101,-2.81,-68.97,3.60,-0.94,-20.09,-1.95
26.967856,0.3208,0.0522,0.8789,-6.04,-61.58,2.99,-1.05,-21.38,-1.87
26.967856,0.3198,0.0576,0.9536,-9.58,-60.12,2.93,-1.24,-22.58,-1.77
27.027791,0.3301,0.0254,0.9639,-8.97,-64.94,2.56,-1.45,-23.83,-1.66
27.027791,0.3511,-0.0029,0.8950,-5.31,-71.29,1.16,-1.61,-25.20,-1.57
27.057770,0.3809,-0.0474,0.8267,-0.31,-72.27,-0.67,-1.66,-26.64,-1.58
27.057770,0.4185,-0.0459,0.8120,2.01,-68.60,-2.01,-1.63,-28.05,-1.66
27.088940,0.4360,-0.0264,0.8521,0.24,-63.48,-2.44,-1.58,-29.37,-1.76
27.088940,0.4565,-0.0132,0.8657,-1.16,-63.42,-2.20,-1.56,-30.63,-1.85
27.147824,0.4756,-0.0195,0.8877,0.00,-63.54,-2.14,-1.55,-31.89,-1.95
27.147824,0.5093,-0.0195,0.8843,0.98,-67.75,-2.01,-1.51,-33.20,-2.05
27.177709,0.5596,-0.0210,0.8618,0.73,-70.37,-0.37,-1.47,-34.58,-2.13
27.177709,0.5767,0.0024,0.8486,-3.05,-70.74,1.34,-1.51,-35.99,-2.16
27.207690,0.5850,0.0098,0.7930,-4.88,-73.49,2.62,-1.63,-37.44,-2.16
27.207690,0.6094,-0.0034,0.7627,-4.46,-70.80,2.99,-1.78,-38.88,-2.13
27.267843,0.6211,-0.0244,0.7974,-3.54,-70.19,1.89,-1.91,-40.29,-2.10
27.267843,0.6367,-0.0327,0.8506,-3.66,-72.51,0.85,-2.02,-41.70,-2.11
27.297734,0.6387,-0.0361,0.8247,-2.56,-80.51,0.31,-2.11,-43.23,-2.12
27.297734,0.6514,-0.0259,0.7388,-1.53,-86.73,-0.79,-2.17,-44.91,-2.15
27.327760,0.6812,-0.0254,0.6753,-0.98,-86.30,-1.89,-2.19,-46.65,-2.21
27.327760,0.7051,-0.0239,0.6675,-1.83,-84.11,-2.14,-2.19,-48.35,-2.30
27.389174,0.7280,0.0078,0.6738,-3.42,-83.44,-1.65,-2.23,-50.02,-2.38
27.389174,0.7236,0.0225,0.6812,-5.62,-83.80,-1.53,-2.31,-51.68,-2.44
27.417812,0.7090,0.0044,0.6758,-7.02,-89.29,-0.98,-2.44,-53.40,-2.49
27.417812,0.7256,0.0000,0.6479,-7.39,-98.57,-0.37,-2.63,-55.28,-2.51
27.447764,0.7734,0.0063,0.5757,-5.62,-102.54,0.06,-2.82,-57.30,-2.49
27.447764,0.7764,-0.0029,0.5249,-2.99,-106.02,-0.06,-3.00,-59.38,-2.43
27.507474,0.7695,-0.0576,0.4297,0.61,-112.37,-0.31,-3.14,-61.56,-2.37
27.507474,0.8037,-0.0669,0.3213,3.78,-112.61,-1.59,-3.18,-63.83,-2.31
27.539275,0.8130,-0.0439,0.2793,5.31,-109.74,-2.81,-3.14,-66.04,-2.31
27.539275,0.8281,-0.0322,0.2642,4.58,-104.37,-4.15,-3.01,-68.19,-2.40
27.567784,0.8579,-0.0137,0.2842,4.33,-99.00,-5.31,-2.81,-70.21,-2.58
27.567784,0.9043,0.0161,0.3223,3.36,-93.57,-5.98,-2.50,-72.13,-2.87
27.630563,0.8921,0.0259,0.3584,3.72,-96.31,-6.35,-2.10,-74.01,-3.27
27.630563,0.8877,0.0391,0.3364,3.48,-107.30,-5.55,-1.61,-76.04,-3.75
27.658772,0.9053,0.0156,0.2085,2.69,-116.21,-4.09,-1.09,-78.29,-4.28
27.658772,0.9199,0.0049,0.0205,4.27,-114.99,-2.81,-0.47,-80.62,-4.90
27.718039,0.9404,0.0269,-0.1191,5.43,-99.06,-2.87,0.45,-82.77,-5.78
27.718039,0.9067,0.0239,-0.1948,5.62,-75.62,-3.30,2.02,-84.50,-7.30
27.747741,0.8628,0.0259,-0.2129,3.97,-56.03,-4.52,4.79,-85.78,-10.03
27.747741,0.8604,0.0176,-0.2036,-1.40,-38.51,-2.44,8.77,-86.69,-14.04
27.777714,0.8545,-0.0132,-0.2134,-5.31,-27.83,0.18,12.74,-87.31,-18.15
27.777714,0.8325,-0.0659,-0.2583,-2.81,-20.51,1.46,16.43,-87.78,-21.98
27.839507,0.8354,-0.0586,-0.2852,1.77,-11.17,0.55,20.30,-88.09,-25.92
27.839507,0.8330,-0.0127,-0.3159,2.69,2.38,-0.31,21.91,-88.17,-27.53
27.867715,0.8584,0.0078,-0.3257,0.43,20.32,-0.24,18.10,-87.95,-23.73
27.867715,0.8711,-0.0010,-0.2910,-3.66,39.55,0.85,11.48,-87.35,-17.20
27.897867,0.8721,-0.0073,-0.2432,-4.46,53.83,1.59,6.48,-86.42,-12.34
27.897867,0.8726,0.0078,-0.1738,-0.67,62.56,0.37,3.73,-85.25,-9.68
27.957802,0.8530,0.0044,-0.1333,5.43,64.88,-2.38,2.72,-83.97,-8.68
27.957802,0.8643,0.0000,-0.1318,11.11,69.09,-4.88,2.69,-82.64,-8.53
27.989684,0.8760,-0.0327,-0.0820,13.43,78.49,-5.62,2.96,-81.16,-8.59
27.989684,0.9067,0.0127,0.0391,7.81,88.50,-2.56,2.89,-79.49,-8.35
28.018175,0.8716,0.0493,0.1021,-0.24,95.64,1.34,2.29,-77.63,-7.72
28.018175,0.8208,0.0288,0.0845,-0.73,96.01,2.56,1.54,-75.72,-7.03
28.077785,0.8013,0.0142,0.0942,5.68,99.79,-0.49,1.13,-73.77,-6.61
28.077785,0.7842,0.0049,0.1895,13.43,104.68,-4.82,1.20,-71.73,-6.53
28.107743,0.8076,0.0122,0.3203,14.83,107.18,-6.53,1.54,-69.60,-6.63
28.107743,0.8413,0.0215,0.4019,9.70,108.22,-4.27,1.78,-67.45,-6.66
28.137849,0.8159,0.0352,0.4380,2.32,106.26,0.18,1.69,-65.30,-6.50
28.137849,0.7993,0.0171,0.4331,-0.61,105.71,2.99,1.38,-63.19,-6.20
28.197958,0.7627,0.0088,0.4712,1.22,107.18,3.78,1.04,-61.06,-5.88
28.197958,0.7622,0.0308,0.5107,3.05,105.96,4.94,0.77,-58.94,-5.56
28.227527,0.7490,0.0459,0.5371,2.50,109.25,5.25,0.53,-56.80,-5.26
28.227527,0.6987,-0.0264,0.5640,1.16,112.79,4.64,0.30,-54.59,-4.99
28.257867,0.6763,-0.0508,0.5874,1.04,115.66,4.15,0.10,-52.30,-4.78
28.257867,0.6416,-0.0396,0.6401,4.09,114.56,3.66,-0.03,-50.00,-4.60
28.317814,0.5977,-0.0244,0.6626,8.79,111.69,1.89,-0.03,-47.74,-4.48
28.317814,0.5649,0.0137,0.6479,13.61,106.45,-0.43,0.12,-45.56,-4.43
28.347804,0.5449,0.0068,0.6245,18.37,106.99,-4.21,0.42,-43.45,-4.45
28.347804,0.5112,0.0142,0.7256,20.94,116.94,-9.09,0.87,-41.20,-4.58
28.377885,0.4907,0.0601,0.8584,19.35,120.61,-11.41,1.37,-38.80,-4.77
28.377885,0.4771,0.0869,0.9492,14.65,115.30,-9.03,1.77,-36.43,-4.93
28.437811,0.4839,0.0967,0.9214,6.16,107.24,-5.62,1.99,-34.21,-5.00
28.437811,0.4990,0.1211,0.8633,-1.95,111.27,-3.23,1.99,-32.05,-5.00
28.467927,0.4307,0.0767,0.9028,-6.35,122.25,-1.95,1.84,-29.70,-4.95
28.467927,0.3521,-0.0063,0.9463,-3.23,121.95,-1.59,1.68,-27.24,-4.89
28.497815,0.3120,-0.0171,0.9897,0.55,116.70,-1.40,1.61,-24.85,-4.83
28.497815,0.2983,0.0337,0.9990,-0.37,108.09,-2.01,1.58,-22.62,-4.74
28.557867,0.2954,0.0229,0.9556,-2.81,110.90,-3.54,1.52,-20.43,-4.60
28.557867,0.2510,-0.0039,0.9795,0.73,115.48,-5.19,1.48,-18.16,-4.51
28.588051,0.1924,-0.0054,1.0547,8.12,111.39,-6.23,1.57,-15.88,-4.44
28.588051,0.1646,-0.0068,1.0967,14.95,100.40,-7.02,1.81,-13.75,-4.40
28.618099,0.1382,0.0361,1.1104,18.68,91.19,-7.14,2.16,-11.84,-4.37
28.618099,0.1011,0.0615,1.1387,17.70,83.74,-8.48,2.54,-10.10,-4.34
28.677826,0.1147,0.1284,1.1309,10.50,82.34,-9.70,2.84,-8.44,-4.35
28.677826,0.1348,0.1562,1.1011,0.00,84.05,-9.77,2.95,-6.77,-4.36
28.711476,0.1309,0.1211,1.0864,-7.02,90.70,-8.85,2.87,-5.00,-4.35
28.711476,0.0684,0.0684,1.1099,-4.76,91.86,-8.42,2.74,-3.15,-4.32
28.738089,0.0498,0.0884,1.1167,2.81,86.18,-7.81,2.72,-1.36,-4.30
28.738089,0.0249,0.1230,1.1050,6.84,78.86,-5.80,2.83,0.29,-4.25
28.797743,-0.0371,0.1411,1.0894,1.95,72.81,-4.09,2.93,1.79,-4.16
28.797743,-0.0752,0.1421,1.0679,-6.90,71.47,-4.33,2.87,3.24,-4.08
28.827612,-0.0991,0.0815,1.0547,-10.86,73.36,-4.70,2.68,4.69,-4.00
28.827612,-0.1763,0.0244,1.0918,-7.81,69.52,-5.62,2.48,6.14,-3.94
28.857790,-0.1992,-0.0117,1.1250,-2.81,59.94,-6.16,2.37,7.43,-3.92
28.857790,-0.2070,-0.0308,1.1108,1.16,52.31,-5.49,2.36,8.55,-3.90
28.917830,-0.2124,0.0044,1.0474,3.91,47.12,-4.46,2.41,9.54,-3.87
28.917830,-0.2109,0.0425,0.9946,5.74,46.26,-3.36,2.50,10.48,-3.83
28.947644,-0.2285,0.0527,0.9834,6.59,49.01,-2.75,2.63,11.43,-3.76
28.947644,-0.2646,0.0542,1.0249,6.35,50.42,-2.08,2.76,12.44,-3.68
28.977816,-0.2632,0.0264,1.0479,4.76,50.42,-1.04,2.89,13.44,-3.58
28.977816,-0.2739,0.0479,1.0542,4.03,50.17,-0.12,2.98,14.45,-3.45
29.037769,-0.3027,0.0801,1.0581,7.45,48.77,-0.85,3.11,15.44,-3.31
29.037769,-0.3667,0.0396,1.0557,14.40,43.15,-3.36,3.34,16.37,-3.22
29.067743,-0.3394,0.0503,1.0249,21.30,36.07,-5.00,3.70,17.16,-3.19
29.067743,-0.3315,0.1147,1.0234,18.86,35.10,-4.27,4.11,17.87,-3.15
29.128003,-0.3018,0.2056,1.0142,9.58,34.30,-2.87,4.39,18.57,-3.10
29.128003,-0.3271,0.1343,0.9883,2.26,33.75,-0.79,4.50,19.26,-3.00
29.159004,-0.3198,0.0889,0.9292,-1.89,31.37,0.92,4.53,19.90,-2.87
29.159004,-0.3447,0.0688,0.8647,-4.46,34.12,1.59,4.49,20.54,-2.71
29.188461,-0.3516,0.0962,0.8628,-6.23,39.43,1.40,4.42,21.28,-2.54
29.188461,-0.3569,0.1138,0.8940,-6.35,43.03,0.98,4.33,22.11,-2.36
29.247733,-0.3662,0.1260,0.9683,-5.43,41.26,0.18,4.25,22.96,-2.20
29.247733,-0.3813,0.0850,1.0234,-4.21,33.26,-1.53,4.18,23.70,-2.08
29.278026,-0.3818,0.0552,1.0581,-2.38,23.62,-2.26,4.12,24.27,-2.01
29.278026,-0.3853,0.0405,1.0884,-0.98,13.85,-1.83,4.08,24.65,-1.96
29.308133,-0.3979,0.0425,1.1113,1.16,3.54,-2.08,4.07,24.82,-1.92
29.308133,-0.3716,0.1055,1.0991,2.69,-6.41,-2.01,4.10,24.78,-1.91
29.367870,-0.3740,0.1445,1.0942,0.43,-9.89,-1.34,4.11,24.62,-1.91
29.367870,-0.3931,0.1680,1.1250,-3.60,-14.28,-1.16,4.05,24.38,-1.91
29.397458,-0.3901,0.1602,1.1333,-7.93,-19.71,-0.79,3.91,24.04,-1.91
29.397458,-0.3906,0.1182,1.1318,-11.60,-25.21,-0.61,3.69,23.59,-1.91
29.427449,-0.3945,0.0625,1.1362,-12.21,-32.29,-0.06,3.42,23.02,-1.91
29.427449,-0.3950,0.0029,1.1533,-10.25,-42.60,-0.31,3.16,22.27,-1.93
29.487479,-0.4233,-0.0586,1.1714,-8.18,-54.69,-0.73,2.94,21.31,-1.96
29.487479,-0.3442,-0.0215,1.0581,-10.07,-65.61,0.85,2.74,20.07,-2.01
29.517733,-0.2979,-0.0254,0.9238,-12.63,-60.67,1.65,2.48,18.80,-2.01
29.517733,-0.2905,-0.0869,0.9062,-5.68,-52.80,0.24,2.26,17.68,-2.01
29.547783,-0.3027,-0.0791,1.0332,8.79,-55.24,-2.14,2.27,16.62,-2.05
29.547783,-0.2832,0.0015,1.1045,16.24,-69.21,-2.01,2.50,15.38,-2.13
29.607849,-0.2046,0.1631,1.0625,11.29,-71.17,1.40,2.76,13.95,-2.19
29.607849,-0.1792,0.2480,1.0029,-0.24,-65.37,5.68,2.86,12.57,-2.16
29.637983,-0.1978,0.2305,1.0190,-10.68,-54.50,9.03,2.75,11.37,-2.04
29.637983,-0.2085,0.2041,1.0386,-16.17,-53.10,8.61,2.48,10.29,-1.88
29.668654,-0.2173,0.1270,1.0532,-15.32,-56.27,8.54,2.18,9.20,-1.72
29.668654,-0.2246,0.0796,1.0278,-12.45,-64.88,6.84,1.91,7.97,-1.58
29.727888,-0.1943,0.0244,0.8989,-10.25,-67.50,5.31,1.69,6.62,-1.48
29.727888,-0.1621,-0.0435,0.8032,-7.63,-57.98,3.23,1.51,5.35,-1.41
29.757833,-0.1260,-0.0366,0.8530,-3.05,-47.79,1.77,1.40,4.31,-1.36
29.757833,-0.1387,-0.0493,0.9497,3.60,-47.36,1.53,1.40,3.37,-1.31
29.787541,-0.1216,-0.0220,1.0220,9.52,-54.08,1.59,1.54,2.36,-1.28
29.787541,-0.0718,0.0396,1.0845,7.81,-58.35,1.53,1.72,1.22,-1.26
29.847768,-0.0303,0.0713,1.0254,1.83,-59.08,2.75,1.82,0.04,-1.22
29.847768,0.0029,0.0947,0.9658,-1.83,-55.85,3.85,1.81,-1.10,-1.16
29.877824,0.0249,0.1182,0.9272,-3.85,-52.55,4.88,1.75,-2.19,-1.08
29.877824,0.0410,0.1245,0.9375,-7.20,-48.16,4.09,1.63,-3.20,-0.99
29.907779,0.0376,0.0767,0.9478,-9.64,-45.90,2.93,1.46,-4.13,-0.91
29.907779,0.0522,0.0532,0.9487,-9.09,-44.19,1.71,1.26,-5.04,-0.86
29.967755,0.0420,0.0376,0.9995,-6.96,-43.46,0.67,1.10,-5.91,-0.82
29.967755,0.0596,0.0332,1.0454,-4.52,-46.63,-0.55,0.99,-6.81,-0.80
29.997698,0.0913,0.0630,1.0996,-3.42,-47.49,-1.89,0.92,-7.75,-0.81
29.997698,0.1348,0.0591,1.1299,-4.64,-51.33,-1.04,0.86,-8.73,-0.83
30.028172,0.1816,0.0195,1.0918,-5.92,-54.81,1.34,0.76,-9.80,-0.82
30.028172,0.1904,0.0049,1.0312,-5.31,-56.34,3.85,0.63,-10.90,-0.75
30.087871,0.1890,-0.0190,0.9878,-1.46,-58.29,5.68,0.55,-12.06,-0.64
30.087871,0.1934,0.0112,1.0117,1.65,-60.24,5.19,0.54,-13.25,-0.51
30.118051,0.2329,0.0615,1.0508,-1.53,-60.61,4.70,0.54,-14.46,-0.40
30.118051,0.2539,0.0469,1.0229,-6.96,-61.58,4.21,0.43,-15.69,-0.29
30.147814,0.2773,0.0347,0.9717,-9.77,-61.28,3.97,0.25,-16.92,-0.20
30.147814,0.2803,0.0220,0.9526,-9.64,-60.61,4.21,0.03,-18.13,-0.09
30.207959,0.3003,0.0171,0.9438,-8.24,-62.68,3.72,-0.16,-19.37,0.01
30.207959,0.3105,-0.0083,0.9497,-6.96,-61.16,2.50,-0.32,-20.60,0.06
30.237789,0.3267,0.0122,0.9814,-6.10,-62.44,1.83,-0.46,-21.84,0.12
30.237789,0.3345,0.0303,0.9976,-6.71,-66.10,1.95,-0.60,-23.11,0.13
30.267756,0.3628,0.0229,0.9297,-5.13,-71.53,2.14,-0.73,-24.50,0.09
30.267756,0.3716,-0.0112,0.8882,-2.62,-71.78,1.65,-0.82,-25.93,0.07
30.327721,0.3872,-0.0205,0.8838,-0.92,-71.41,0.79,-0.85,-27.37,0.03
30.327721,0.4111,-0.0103,0.8784,-0.79,-70.86,0.85,-0.87,-28.78,-0.01
30.357988,0.4556,-0.0059,0.8486,-2.08,-70.13,1.16,-0.90,-30.20,-0.04
30.357988,0.4854,0.0112,0.8374,-5.00,-67.14,1.71,-0.98,-31.56,-0.08
30.387694,0.4971,0.0122,0.8135,-7.57,-65.86,2.38,-1.14,-32.88,-0.09
30.387694,0.5210,-0.0151,0.7754,-7.02,-66.71,2.75,-1.32,-34.21,-0.08
30.447833,0.5342,-0.0161,0.7734,-5.00,-66.16,2.44,-1.47,-35.54,-0.07
30.447833,0.5498,-0.0107,0.7407,-4.88,-65.55,0.73,-1.60,-36.85,-0.08
30.477559,0.5630,-0.0215,0.6641,-3.60,-62.38,-0.92,-1.69,-38.13,-0.13
30.477559,0.5747,-0.0337,0.6299,-2.01,-59.20,-2.14,-1.72,-39.34,-0.22
30.537823,0.5991,-0.0264,0.6504,-1.34,-54.14,-2.75,-1.71,-40.47,-0.32
30.537823,0.6089,-0.0298,0.6890,-1.16,-50.42,-3.11,-1.69,-41.51,-0.45
30.567779,0.6260,-0.0288,0.7554,-2.26,-49.44,-2.26,-1.68,-42.50,-0.57
30.567779,0.6455,-0.0195,0.7778,-6.04,-52.67,-0.67,-1.74,-43.52,-0.65
30.597826,0.6533,-0.0269,0.6997,-8.48,-54.93,-0.12,-1.90,-44.59,-0.70
30.597826,0.6670,-0.0254,0.5840,-7.39,-54.75,-1.10,-2.06,-45.69,-0.75
30.658162,0.7036,-0.0127,0.5479,-4.58,-48.65,-2.75,-2.15,-46.72,-0.85
30.658162,0.7168,0.0000,0.6387,-2.93,-45.72,-3.05,-2.16,-47.65,-0.97
30.687747,0.7339,-0.0151,0.7275,-3.42,-48.10,-2.50,-2.18,-48.59,-1.09
30.687747,0.7593,0.0078,0.8027,-5.62,-54.87,-0.79,-2.24,-49.61,-1.17
30.718071,0.7549,0.0049,0.6875,-7.81,-62.32,0.24,-2.41,-50.79,-1.20
30.718071,0.7466,-0.0361,0.4990,-4.39,-64.33,-0.31,-2.57,-52.06,-1.21
30.777771,0.7500,-0.0288,0.4062,0.06,-58.35,-1.53,-2.61,-53.29,-1.25
30.777771,0.7446,-0.0088,0.4189,0.73,-53.16,-2.26,-2.57,-54.40,-1.33
30.807761,0.7417,0.0107,0.4380,-3.30,-49.62,-1.04,-2.57,-55.42,-1.41
30.807761,0.7417,0.0176,0.4419,-8.85,-45.72,-0.24,-2.71,-56.37,-1.45
30.837739,0.7705,0.0107,0.4395,-12.45,-39.18,1.89,-2.99,-57.22,-1.43
30.837739,0.8159,-0.0142,0.4131,-13.06,-31.37,5.62,-3.41,-57.91,-1.30
30.897792,0.8306,-0.0537,0.3892,-10.68,-25.45,8.24,-3.93,-58.47,-1.02
30.897792,0.8521,-0.0479,0.4224,-8.30,-20.32,8.00,-4.44,-58.91,-0.69
30.927807,0.8779,-0.0303,0.4790,-7.45,-18.01,5.74,-4.87,-59.28,-0.42
30.927807,0.8970,-0.0298,0.5557,-5.62,-17.52,2.50,-5.18,-59.62,-0.26
30.958289,0.9048,-0.0239,0.6421,-4.33,-24.54,0.43,-5.37,-60.02,-0.21
30.958289,0.9141,-0.0112,0.6431,-5.37,-35.28,0.85,-5.56,-60.63,-0.14
31.017988,0.9062,-0.0479,0.5386,-7.20,-42.42,1.10,-5.84,-61.41,-0.02
31.017988,0.9126,-0.0674,0.4458,-6.84,-44.80,1.04,-6.17,-62.29,0.12
31.047729,0.9014,-0.0493,0.4141,-5.62,-44.80,0.67,-6.48,-63.18,0.28
31.047729,0.8823,-0.0327,0.4414,-4.21,-45.41,0.12,-6.77,-64.07,0.44
31.077838,0.8408,-0.0215,0.4888,-2.32,-52.25,-1.22,-7.01,-65.03,0.59
31.077838,0.8379,-0.0278,0.5078,-0.37,-63.78,-3.17,-7.20,-66.19,0.72
31.137845,0.8735,-0.0518,0.4766,-0.31,-72.33,-5.25,-7.33,-67.57,0.81
31.137845,0.8726,-0.0913,0.3970,1.04,-79.35,-6.10,-7.43,-69.09,0.87
31.167748,0.8823,-0.1318,0.2749,3.54,-84.66,-6.71,-7.51,-70.74,0.96
31.167748,0.9214,-0.0767,0.1636,3.48,-78.92,-5.00,-7.61,-72.39,1.09
31.197774,0.9492,0.0059,0.1353,2.56,-65.55,-2.44,-7.86,-73.82,1.36
31.197774,0.9717,0.0591,0.1641,3.48,-57.74,-2.56,-8.15,-75.04,1.68
31.258478,0.9502,0.0498,0.1880,4.39,-58.35,-4.21,-8.35,-76.18,1.92
31.258478,0.9434,-0.0039,0.1201,2.87,-63.84,-5.07,-8.51,-77.41,2.11
31.287835,0.9819,-0.0640,-0.0186,0.12,-57.13,-3.78,-8.81,-78.65,2.40
31.287835,0.9702,-0.1011,-0.0889,-0.85,-39.86,-3.11,-9.16,-79.61,2.69
31.318240,0.9492,-0.0625,-0.0762,0.61,-22.58,-2.69,-9.31,-80.22,2.79
31.318240,0.9443,0.0156,-0.0337,2.93,-12.21,-0.61,-9.34,-80.55,2.81
31.378826,0.9414,0.0249,-0.0044,1.65,-2.81,1.59,-9.51,-80.69,2.99
31.378826,0.9175,0.0112,-0.0332,-2.50,3.72,3.42,-9.84,-80.66,3.26
31.408600,0.9189,-0.0435,-0.1533,-4.39,12.82,5.43,-10.36,-80.50,3.66
31.408600,0.9106,-0.0283,-0.1855,-3.36,28.99,5.74,-10.74,-80.06,3.92
31.437803,0.9019,-0.0166,-0.1191,2.38,44.80,3.54,-10.61,-79.30,3.72
31.437803,0.8555,-0.0337,0.0010,8.79,52.80,0.12,-9.84,-78.31,3.01
31.497825,0.8203,-0.0449,0.0566,10.07,51.33,-0.79,-8.86,-77.27,2.18
31.497825,0.8633,-0.0312,0.0293,4.94,55.24,0.79,-8.12,-76.23,1.53
31.527753,0.9277,-0.0366,0.0322,-0.18,70.86,3.78,-7.70,-74.98,1.09
31.527753,0.8872,-0.0278,0.1260,-4.09,81.05,4.94,-7.48,-73.42,0.76
31.558751,0.8433,-0.0298,0.1562,-5.00,82.46,5.00,-7.35,-71.78,0.48
31.558751,0.8062,-0.0566,0.1406,0.00,83.68,2.93,-7.15,-70.13,0.16
31.617768,0.7886,-0.0708,0.1743,7.57,86.79,-0.61,-6.69,-68.43,-0.28
31.617768,0.7700,-0.1104,0.2114,17.21,88.62,-5.74,-5.90,-66.68,-0.91
31.647455,0.7886,-0.0645,0.2729,22.34,91.25,-8.67,-4.84,-64.91,-1.65
31.647455,0.7822,-0.0181,0.3076,21.73,94.18,-6.35,-3.88,-63.06,-2.27
31.678464,0.7451,-0.0107,0.3569,20.57,99.49,-2.50,-3.15,-61.13,-2.66
31.678464,0.7212,0.0059,0.4424,17.76,100.04,-0.18,-2.64,-59.13,-2.85
31.737809,0.7539,0.0430,0.5391,9.52,111.94,-2.56,-2.27,-57.02,-3.01
31.737809,0.7256,0.0269,0.6304,4.33,119.63,-4.27,-2.00,-54.68,-3.24
31.767733,0.6680,0.0049,0.6978,8.85,109.68,-2.81,-1.75,-52.37,-3.43
31.767733,0.6943,-0.0073,0.7290,15.44,95.21,-2.87,-1.43,-50.35,-3.57
31.797785,0.7188,0.0078,0.7490,14.59,96.25,-5.62,-1.03,-48.46,-3.74
31.797785,0.6733,-0.0234,0.8149,11.84,97.23,-7.32,-0.65,-46.51,-3.96
31.858868,0.6494,0.0151,0.8652,10.31,91.61,-6.47,-0.31,-44.61,-4.16
31.858868,0.6343,0.0024,0.8462,11.47,79.04,-3.85,-0.03,-42.91,-4.30
31.887865,0.6753,-0.0078,0.8110,13.12,76.54,-2.32,0.23,-41.38,-4.36
31.887865,0.6304,-0.0215,0.8945,14.47,82.95,-4.27,0.51,-39.77,-4.42
31.947811,0.5767,0.0107,1.0132,13.43,74.34,-6.71,0.85,-38.17,-4.54
31.947811,0.5894,0.0835,0.9526,6.77,57.92,-5.25,1.11,-36.86,-4.68
31.977751,0.6089,0.1289,0.7954,-3.36,54.63,-2.81,1.16,-35.76,-4.77
31.977751,0.5806,0.1206,0.6880,-8.67,66.53,-0.43,1.00,-34.57,-4.78
32.009022,0.4756,0.0483,0.7529,-3.30,84.41,-0.79,0.83,-33.03,-4.77
32.009022,0.3833,0.0122,0.8901,3.85,84.11,-3.60,0.83,-31.31,-4.80
32.067758,0.4062,0.0332,0.9302,4.88,74.04,-4.15,0.94,-29.73,-4.87
32.067758,0.4395,0.0112,0.8721,0.98,73.00,-3.11,1.01,-28.28,-4.94
32.097810,0.3833,-0.0303,0.8706,2.01,75.32,-2.50,1.02,-26.79,-4.98
32.097810,0.3418,-0.0176,0.9175,6.96,75.50,-3.11,1.11,-25.28,-5.01
32.127704,0.3442,0.0410,0.9819,7.26,73.06,-3.78,1.27,-23.79,-5.08
32.127704,0.3579,0.0903,0.9648,3.11,74.28,-2.26,1.38,-22.31,-5.05
32.187751,0.3130,0.0635,0.9399,2.75,72.94,-0.55,1.41,-20.82,-4.94
32.187751,0.2959,0.0562,0.9004,5.74,69.70,-0.92,1.47,-19.40,-4.83
32.218002,0.2671,0.0581,0.9316,8.06,70.56,-3.48,1.61,-18.01,-4.74
32.218002,0.2651,0.0869,1.0171,3.85,74.10,-5.68,1.74,-16.56,-4.70
32.247885,0.2539,0.0537,1.0186,0.06,74.16,-5.13,1.78,-15.06,-4.66
32.247885,0.2017,0.0278,0.9683,3.23,71.29,-4.94,1.81,-13.60,-4.63
32.308805,0.1611,0.0083,0.9355,10.25,66.65,-5.74,1.95,-12.22,-4.60
32.308805,0.1855,0.0503,0.9619,12.76,67.87,-6.59,2.20,-10.89,-4.58
32.337404,0.1392,0.0449,1.0190,10.44,74.83,-6.35,2.44,-9.44,-4.55
32.337404,0.0674,0.0171,1.0508,8.91,74.28,-7.02,2.64,-7.93,-4.52
32.367663,0.0796,0.0601,1.0278,8.67,69.52,-7.75,2.82,-6.49,-4.50
32.367663,0.0757,0.0913,1.0186,8.73,69.27,-7.57,3.00,-5.10,-4.49
32.427717,0.0552,0.1021,1.0586,8.36,71.66,-7.14,3.18,-3.68,-4.47
32.427717,0.0127,0.0562,1.0991,8.79,70.86,-6.65,3.35,-2.24,-4.43
32.459184,-0.0229,0.0278,1.1279,9.28,63.29,-6.71,3.53,-0.88,-4.39
32.459184,-0.0229,0.0410,1.1304,9.77,56.09,-6.23,3.72,0.31,-4.36
32.487663,-0.0361,0.0610,1.1108,10.13,51.82,-5.68,3.92,1.38,-4.32
32.487663,-0.0605,0.0718,1.0786,10.68,46.08,-6.16,4.13,2.37,-4.28
32.547760,-0.0698,0.0815,1.0225,10.07,42.42,-7.93,4.33,3.26,-4.28
32.547760,-0.0708,0.1128,0.9512,8.24,43.09,-9.95,4.51,4.12,-4.32
32.579050,-0.0781,0.1514,0.9023,6.59,49.32,-11.66,4.65,5.05,-4.38
32.579050,-0.1172,0.1357,0.9111,3.42,62.26,-12.76,4.74,6.20,-4.45
32.609466,-0.1914,0.0957,0.9434,-0.18,70.13,-12.39,4.76,7.56,-4.50
32.609466,-0.2129,0.1177,0.9512,-1.71,69.09,-9.77,4.72,8.98,-4.52
32.667825,-0.2241,0.1328,0.9688,-3.78,68.30,-6.29,4.66,10.36,-4.47
32.667825,-0.2856,0.0879,1.0093,-6.84,70.19,-4.70,4.56,11.76,-4.37
32.697807,-0.3223,0.0479,1.0366,-8.42,66.35,-6.04,4.42,13.13,-4.27
32.697807,-0.2983,0.0742,1.0337,-8.67,58.96,-8.06,4.24,14.39,-4.24
32.727741,-0.2651,0.1348,1.0015,-8.85,53.96,-9.46,4.04,15.52,-4.26
32.727741,-0.2598,0.1958,0.9668,-9.64,52.98,-9.77,3.83,16.60,-4.30
32.787802,-0.2739,0.2031,0.9771,-12.27,57.62,-9.03,3.59,17.71,-4.34
32.787802,-0.3306,0.1421,1.0361,-14.77,63.35,-8.30,3.29,18.95,-4.35
32.818091,-0.3682,0.1182,1.1216,-16.54,59.75,-6.96,2.96,20.21,-4.36
32.818091,-0.3867,0.0767,1.1616,-18.31,47.06,-4.09,2.59,21.29,-4.33
32.847798,-0.3457,0.0649,1.0962,-19.35,37.54,-1.22,2.22,22.10,-4.28
32.847798,-0.2871,0.0820,1.0015,-21.85,43.40,1.89,1.83,22.91,-4.16
32.907850,-0.3276,0.0239,0.9893,-26.00,50.96,6.29,1.41,23.86,-3.96
32.907850,-0.4287,-0.0508,0.9570,-27.47,48.95,10.62,0.96,24.86,-3.67
32.937823,-0.4961,-0.1118,0.9028,-22.95,43.21,12.82,0.57,25.77,-3.31
32.937823,-0.4946,-0.0596,0.9048,-16.78,39.49,11.54,0.31,26.59,-2.96
32.968250,-0.4771,-0.0020,0.9419,-13.31,37.29,9.28,0.13,27.34,-2.64
32.968250,-0.5000,-0.0254,0.9678,-8.91,33.57,5.43,-0.01,28.06,-2.41
33.027761,-0.5005,-0.0161,1.0205,-2.75,22.46,1.83,-0.09,28.62,-2.26
33.027761,-0.4902,0.0020,1.0562,3.60,7.08,-0.61,-0.07,28.92,-2.19
33.057789,-0.4644,0.0317,1.0674,5.62,-6.84,-2.26,0.02,28.90,-2.18
33.057789,-0.4443,0.0410,1.0894,1.71,-12.57,-2.93,0.07,28.70,-2.19
33.087790,-0.4873,-0.0137,1.1465,-1.53,-20.51,-2.69,0.03,28.38,-2.21
33.087790,-0.4824,-0.0444,1.1567,-1.65,-34.67,-1.89,-0.04,27.82,-2.23
33.147772,-0.4531,-0.0435,1.1650,1.53,-46.75,-1.59,-0.08,26.99,-2.24
33.147772,-0.4580,-0.0601,1.1943,5.37,-59.69,-0.79,-0.03,25.92,-2.25
33.177483,-0.4346,-0.0083,1.1802,5.68,-74.46,0.18,0.08,24.57,-2.25
33.177483,-0.3696,0.0547,1.0723,-0.85,-75.20,1.83,0.12,23.04,-2.21
33.207475,-0.3784,0.0303,1.0312,-1.95,-67.08,1.65,0.07,21.63,-2.16
33.207475,-0.4106,0.0366,1.1211,6.10,-69.09,0.37,0.10,20.29,-2.13
33.267605,-0.3877,0.0454,1.1768,10.86,-80.44,-1.34,0.26,18.79,-2.13
33.267605,-0.3516,0.0137,1.1157,11.84,-86.55,-2.20,0.46,17.10,-2.18
33.297578,-0.3335,0.0254,1.0752,13.67,-90.64,-2.26,0.69,15.33,-2.24
33.297578,-0.2593,0.0913,1.0615,12.33,-94.85,-1.22,0.93,13.47,-2.30
33.357685,-0.1782,0.1709,1.1299,2.99,-84.29,1.10,1.07,11.66,-2.33
33.357685,-0.2056,0.1763,1.2427,-10.74,-82.46,4.39,0.99,10.03,-2.30
33.387546,-0.2285,0.1353,1.1738,-19.59,-90.88,7.45,0.68,8.29,-2.20
33.387546,-0.2119,0.0718,1.0166,-20.75,-96.13,8.79,0.27,6.39,-2.04
33.417880,-0.1396,0.0229,0.8838,-18.86,-90.94,7.93,-0.12,4.52,-1.87
33.417880,-0.0791,0.0151,0.8423,-15.38,-83.74,7.26,-0.46,2.77,-1.70
33.477474,-0.0630,-0.0142,0.8457,-11.90,-76.97,6.35,-0.73,1.16,-1.54
33.477474,-0.0796,-0.0425,0.9243,-7.32,-75.68,4.88,-0.92,-0.34,-1.40
33.507524,-0.0698,-0.0444,1.0063,-3.72,-80.14,3.66,-1.03,-1.90,-1.27
33.507524,-0.0674,-0.0298,1.0400,-1.89,-82.28,2.14,-1.09,-3.53,-1.18
33.537414,-0.0254,-0.0078,1.0039,-0.67,-83.25,1.53,-1.12,-5.19,-1.10
33.537414,0.0029,-0.0483,0.9624,1.34,-81.24,1.16,-1.11,-6.83,-1.04
33.597552,0.0215,-0.1138,0.9521,3.30,-82.82,1.95,-1.06,-8.46,-0.97
33.597552,0.0967,-0.0645,0.9712,0.24,-78.37,3.23,-1.03,-10.10,-0.88
33.628669,0.1265,0.0132,1.0762,-3.97,-73.73,5.43,-1.09,-11.60,-0.75
33.628669,0.0977,0.0444,1.2104,-6.84,-80.57,8.48,-1.23,-13.12,-0.56
33.657512,0.1211,0.0317,1.2256,-11.84,-96.44,9.83,-1.46,-14.89,-0.33
33.657512,0.1958,0.0005,1.0005,-14.77,-107.67,10.07,-1.80,-16.97,-0.07
33.717779,0.3081,0.0483,0.7891,-15.75,-97.17,9.58,-2.18,-19.03,0.19
33.717779,0.3140,0.0474,0.7798,-17.09,-81.30,8.42,-2.59,-20.79,0.44
33.747519,0.2827,-0.0005,0.8740,-17.64,-77.64,5.55,-3.00,-22.35,0.60
33.747519,0.2754,-0.0645,0.9126,-15.14,-83.37,1.65,-3.39,-23.95,0.71
33.777573,0.3066,-0.0938,0.8604,-8.06,-88.75,-2.08,-3.65,-25.69,0.74
33.777573,0.3618,-0.0684,0.8198,-3.48,-88.75,-5.55,-3.75,-27.47,0.70
33.837540,0.4170,-0.0654,0.7603,-0.85,-87.95,-6.16,-3.76,-29.24,0.60
33.837540,0.4272,-0.1177,0.7466,0.61,-85.75,-5.25,-3.74,-30.96,0.51
33.867865,0.4639,-0.1284,0.7202,1.22,-84.05,-4.70,-3.70,-32.67,0.42
33.867865,0.5146,-0.0625,0.7031,-0.37,-76.90,-3.05,-3.67,-34.29,0.37
33.897877,0.5239,-0.0210,0.7505,-3.85,-70.74,-0.79,-3.74,-35.74,0.35
33.897877,0.5200,-0.0005,0.8130,-7.26,-69.46,-0.37,-3.88,-37.13,0.37
33.957490,0.5503,0.0396,0.8511,-10.19,-72.51,-1.16,-4.10,-38.55,0.39
33.957490,0.5615,0.0029,0.8628,-8.79,-75.74,-2.87,-4.33,-40.03,0.39
33.987550,0.5620,-0.0645,0.8374,-2.01,-83.56,-6.23,-4.43,-41.62,0.33
33.987550,0.6152,-0.0645,0.7734,2.20,-89.60,-8.54,-4.36,-43.36,0.20
34.017830,0.6685,-0.0527,0.6675,1.95,-89.72,-8.48,-4.23,-45.18,0.03
34.017830,0.6743,-0.0522,0.6230,0.61,-85.88,-7.32,-4.12,-46.93,-0.13
34.078049,0.6743,-0.0630,0.5942,-0.98,-85.14,-6.23,-4.07,-48.64,-0.25
34.078049,0.6890,-0.0298,0.5879,-2.81,-83.19,-6.29,-4.05,-50.32,-0.37
34.107536,0.6987,0.0239,0.6221,-5.80,-82.40,-5.98,-4.08,-51.96,-0.50
34.107536,0.7329,0.0215,0.5459,-7.14,-85.57,-4.64,-4.17,-53.66,-0.59
34.137508,0.7510,-0.0322,0.4736,-6.65,-82.40,-5.19,-4.30,-55.34,-0.66
34.137508,0.7666,-0.0527,0.4297,-5.49,-79.41,-6.04,-4.37,-56.95,-0.76
34.197600,0.7759,-0.0464,0.3809,-2.62,-77.76,-6.16,-4.38,-58.52,-0.89
34.197600,0.7871,-0.0234,0.3794,2.62,-75.50,-5.98,-4.31,-60.06,-1.03
34.227547,0.8013,-0.0278,0.3989,7.63,-72.08,-5.55,-4.12,-61.53,-1.16
34.227547,0.8154,-0.0371,0.4097,10.01,-68.91,-6.41,-3.82,-62.94,-1.33
34.257546,0.8403,-0.0171,0.4121,9.52,-67.69,-6.90,-3.46,-64.30,-1.57
34.257546,0.8745,0.0210,0.4092,8.97,-69.82,-6.41,-3.07,-65.67,-1.84
34.317861,0.8804,0.0400,0.4385,7.02,-73.12,-5.68,-2.71,-67.10,-2.10
34.317861,0.8418,0.0571,0.5215,2.20,-86.73,-5.43,-2.41,-68.69,-2.37
34.347541,0.8804,0.0674,0.4907,-4.64,-99.98,-4.52,-2.23,-70.58,-2.64
34.347541,0.9155,-0.0239,0.3252,-7.08,-104.55,-1.46,-2.26,-72.63,-2.79
34.378478,0.8760,-0.1069,0.1406,-5.49,-105.96,0.61,-2.50,-74.73,-2.72
34.378478,0.8828,-0.0620,-0.0771,-4.33,-99.79,2.26,-2.90,-76.81,-2.45
34.437583,0.8867,0.0161,-0.2139,-5.68,-78.06,2.50,-3.53,-78.58,-1.96
34.437583,0.8862,0.0352,-0.2344,-7.51,-54.50,0.85,-4.17,-79.89,-1.48
34.467533,0.9282,0.0171,-0.1577,-7.75,-33.94,-0.61,-4.62,-80.74,-1.24
34.467533,0.9604,-0.0098,-0.0132,-8.61,-20.63,-1.10,-4.86,-81.27,-1.21
34.497507,0.9624,-0.0088,0.0444,-9.09,-19.04,-0.55,-5.07,-81.64,-1.22
34.497507,0.9790,-0.0137,-0.0420,-7.20,-18.25,1.34,-5.51,-82.02,-0.99
34.557533,0.9673,-0.0112,-0.1655,-3.36,-7.32,3.11,-6.17,-82.29,-0.48
34.557533,0.9624,0.0063,-0.2148,0.18,12.08,3.05,-6.71,-82.23,-0.01
34.587511,0.9443,0.0166,-0.1230,3.17,29.66,1.71,-6.74,-81.78,0.01
34.587511,0.9224,0.0093,0.0078,4.52,36.01,1.10,-6.42,-81.10,-0.27
34.617856,0.9111,-0.0381,0.0806,5.25,36.80,0.67,-6.04,-80.37,-0.60
34.617856,0.9146,-0.0371,0.0972,5.00,34.24,0.12,-5.64,-79.66,-0.95
34.677562,0.9683,-0.0156,0.0703,3.97,39.12,0.12,-5.28,-78.94,-1.26
34.677562,0.9580,-0.0127,0.0703,4.03,44.80,-0.67,-4.89,-78.09,-1.62
34.707501,0.9277,-0.0488,0.1187,7.81,50.54,-2.32,-4.38,-77.14,-2.07
34.707501,0.9028,-0.0269,0.2495,11.60,48.58,-4.21,-3.66,-76.13,-2.64
34.767558,0.9302,-0.0063,0.3105,10.93,41.93,-3.72,-2.98,-75.24,-3.15
34.767558,0.9497,0.0044,0.3003,6.77,41.81,-2.69,-2.48,-74.42,-3.53
34.797519,0.9497,0.0244,0.2803,1.53,45.90,-2.75,-2.17,-73.54,-3.81
34.797519,0.9492,0.0195,0.2358,0.43,52.31,-5.86,-1.83,-72.56,-4.20
34.827435,0.8994,-0.0459,0.1958,7.20,56.64,-8.91,-1.27,-71.46,-4.77
34.827435,0.8608,-0.0645,0.2026,14.47,52.73,-9.52,-0.49,-70.35,-5.39
34.887494,0.8999,-0.0215,0.2290,15.93,49.93,-7.20,0.24,-69.34,-5.87
34.887494,0.9009,0.0415,0.3057,9.77,54.44,-4.58,0.72,-68.29,-6.14
34.918112,0.8906,0.0776,0.3545,-0.49,57.74,-0.43,0.83,-67.17,-6.21
34.918112,0.8608,0.0566,0.3335,-9.64,65.06,3.11,0.52,-65.94,-6.05
34.947510,0.8159,0.0396,0.3218,-11.66,69.58,4.39,0.02,-64.59,-5.79
34.947510,0.8037,0.0142,0.3418,-6.96,70.92,2.20,-0.38,-63.18,-5.60
35.007476,0.8276,-0.0078,0.3735,-1.40,72.45,-1.89,-0.52,-61.75,-5.58
35.007476,0.8262,-0.0420,0.4287,4.15,71.17,-4.21,-0.41,-60.30,-5.71
35.037462,0.8081,-0.0410,0.4741,7.93,66.89,-3.78,-0.19,-58.93,-5.87
35.037462,0.7759,-0.0166,0.4722,9.34,64.15,-2.38,0.03,-57.62,-5.97
35.067472,0.7500,-0.0103,0.4282,10.93,66.53,-3.30,0.26,-56.32,-6.04
35.067472,0.7446,0.0195,0.4590,10.38,75.01,-5.19,0.54,-54.90,-6.15
35.127482,0.7207,0.0454,0.5371,6.65,78.86,-4.76,0.77,-53.34,-6.28
35.127482,0.7246,0.0669,0.5923,2.87,79.59,-1.46,0.87,-51.76,-6.33
35.157884,0.6846,0.0527,0.6011,-1.28,76.90,2.14,0.79,-50.20,-6.25
35.157884,0.6680,0.0288,0.5410,-3.97,75.99,4.46,0.58,-48.68,-6.09
35.187953,0.6411,-0.0103,0.4917,-1.71,84.66,3.48,0.35,-47.08,-5.93
35.187953,0.5938,-0.0415,0.5527,5.68,94.24,-0.49,0.30,-45.29,-5.84
35.247508,0.5586,-0.0415,0.6660,10.56,96.50,-3.85,0.46,-43.36,-5.87
35.247508,0.5410,-0.0200,0.6875,10.19,92.65,-3.97,0.69,-41.47,-5.94
35.277561,0.5239,0.0234,0.6299,6.59,93.26,-2.99,0.86,-39.62,-5.97
35.277561,0.4893,0.0215,0.5801,8.79,104.55,-3.54,0.98,-37.66,-5.98
35.307507,0.4082,0.0396,0.7388,13.92,119.51,-7.57,1.22,-35.39,-6.04
35.307507,0.3604,0.0532,0.9575,13.55,118.96,-10.93,1.55,-32.96,-6.17
35.367666,0.4165,0.1016,1.0425,10.50,107.67,-8.61,1.84,-30.70,-6.31
35.367666,0.4077,0.0581,1.0376,10.62,97.23,-5.86,2.06,-28.66,-6.38
35.397507,0.3828,-0.0112,1.0376,11.11,91.43,-7.32,2.29,-26.77,-6.45
35.397507,0.3926,0.0415,1.0830,4.27,88.38,-9.83,2.49,-24.97,-6.56
35.427523,0.4502,0.1104,1.0869,-12.21,84.72,-7.81,2.44,-23.24,-6.59
35.427523,0.4209,0.0703,1.0347,-24.72,87.40,-2.99,2.03,-21.51,-6.51
35.487523,0.3252,-0.0029,1.0273,-22.03,79.71,0.31,1.52,-19.83,-6.38
35.487523,0.2578,-0.0391,1.0332,-14.71,72.94,-0.73,1.13,-18.31,-6.26
35.517810,0.2480,0.0005,1.0483,-10.62,70.07,-1.89,0.87,-16.90,-6.17
35.517810,0.2373,0.0225,1.0415,-10.25,73.91,-2.38,0.66,-15.46,-6.11
35.547539,0.1841,-0.0122,1.0317,-5.49,77.45,-2.99,0.49,-13.94,-6.05
35.547539,0.1357,-0.0327,1.0605,0.55,72.45,-3.72,0.46,-12.41,-6.03
35.607521,0.1411,0.0234,1.0322,3.11,62.26,-2.69,0.51,-11.08,-5.99
35.607521,0.1353,0.0752,0.9751,2.93,58.41,-1.53,0.57,-9.89,-5.94
35.637525,0.1035,0.0571,0.9878,0.24,62.13,-3.17,0.60,-8.68,-5.89
35.637525,0.0869,0.0557,1.0742,-3.85,68.18,-5.13,0.57,-7.37,-5.87
35.667582,0.0581,0.0596,1.1226,-7.26,66.77,-5.43,0.46,-6.00,-5.88
35.667582,0.0513,0.0117,1.0640,-5.80,57.98,-3.91,0.33,-4.75,-5.89
35.727478,0.0254,-0.0425,0.9863,-1.46,51.09,-2.56,0.26,-3.67,-5.86
35.727478,0.0264,-0.0664,0.9180,1.95,51.76,-2.75,0.26,-2.65,-5.83
35.757487,0.0264,-0.0391,0.9077,8.30,58.53,-4.76,0.37,-1.54,-5.82
35.757487,-0.0190,-0.0352,0.9165,20.39,62.13,-7.20,0.65,-0.32,-5.85
35.787513,-0.0835,-0.0488,0.9521,35.83,58.04,-10.74,1.22,0.89,-5.93
35.787513,-0.0928,0.0723,1.0249,44.07,52.86,-13.73,2.04,2.01,-6.06
35.847519,-0.0815,0.2251,1.0684,39.43,50.96,-12.63,2.89,3.05,-6.21
35.847519,-0.1084,0.2344,1.0547,28.81,53.47,-9.52,3.56,4.11,-6.28
35.877454,-0.1621,0.1250,1.0596,17.52,58.84,-7.32,4.01,5.25,-6.30
35.877454,-0.1694,0.1299,1.0942,7.51,62.19,-5.19,4.25,6.47,-6.25
35.907532,-0.1680,0.1519,1.1069,-0.61,66.65,-3.11,4.31,7.76,-6.14
35.907532,-0.2070,0.1118,1.0723,-3.60,69.64,-2.32,4.27,9.14,-6.00
35.967533,-0.2046,0.0923,1.0405,-4.27,72.27,-2.32,4.20,10.55,-5.85
