t,ax,ay,az,gx,gy,gz,wx,wy,wz
0.049293,-0.1733,-0.9287,-0.3281,0.73,0.18,-0.18,-111.13,10.88,-23.02
0.049293,-0.1714,-0.9277,-0.3276,0.73,0.12,-0.24,-111.12,10.88,-22.99
0.049320,-0.1694,-0.9287,-0.3271,0.43,0.06,-0.31,-111.10,10.87,-22.96
0.049320,-0.1709,-0.9292,-0.3242,0.18,-0.24,-0.37,-111.09,10.86,-22.92
0.097290,-0.1714,-0.9302,-0.3242,0.37,-0.49,-0.37,-111.08,10.85,-22.87
0.097290,-0.1743,-0.9307,-0.3262,0.37,-0.61,-0.37,-111.06,10.84,-22.84
0.127114,-0.1738,-0.9292,-0.3291,0.37,-0.43,-0.31,-111.05,10.84,-22.81
0.127114,-0.1733,-0.9302,-0.3232,0.12,-0.31,-0.43,-111.04,10.84,-22.79
0.157462,-0.1753,-0.9277,-0.3291,0.31,-0.85,-0.55,-111.03,10.84,-22.77
0.157462,-0.1680,-0.9224,-0.3120,0.00,-1.77,-0.43,-111.03,10.84,-22.77
0.217172,-0.1763,-0.9268,-0.3262,-0.18,-0.79,-0.67,-111.03,10.83,-22.77
0.217172,-0.1812,-0.9307,-0.3311,0.18,-0.43,-1.10,-111.03,10.83,-22.77
0.247363,-0.1650,-0.9292,-0.3257,1.04,-0.37,-0.98,-111.03,10.83,-22.77
0.247363,-0.1689,-0.9292,-0.3276,1.53,-0.98,-0.24,-111.02,10.83,-22.76
0.277393,-0.1787,-0.9287,-0.3174,1.28,-1.34,0.00,-111.02,10.83,-22.76
0.277393,-0.1772,-0.9287,-0.3179,0.73,-0.92,-0.24,-111.02,10.83,-22.76
0.337434,-0.1689,-0.9326,-0.3252,0.43,-0.12,-0.31,-111.02,10.83,-22.75
0.337434,-0.1699,-0.9341,-0.3247,0.37,0.00,0.00,-111.02,10.83,-22.75
0.367410,-0.1743,-0.9312,-0.3218,0.24,0.06,0.31,-111.01,10.83,-22.74
0.367410,-0.1763,-0.9307,-0.3213,0.00,0.31,0.18,-111.01,10.83,-22.73
0.397369,-0.1733,-0.9316,-0.3247,-0.06,0.49,0.12,-111.00,10.83,-22.73
0.397369,-0.1719,-0.9297,-0.3257,0.00,0.43,0.24,-110.99,10.83,-22.71
0.457327,-0.1733,-0.9302,-0.3228,-0.06,0.55,0.24,-110.99,10.83,-22.71
0.457327,-0.1748,-0.9287,-0.3232,0.00,0.79,0.00,-110.98,10.83,-22.70
0.497996,-0.1733,-0.9297,-0.3213,0.00,0.98,0.00,-110.98,10.83,-22.69
0.497996,-0.1719,-0.9307,-0.3223,0.00,0.92,0.18,-110.97,10.83,-22.68
0.517178,-0.1738,-0.9287,-0.3232,0.12,0.73,0.24,-110.97,10.83,-22.66
0.517178,-0.1748,-0.9287,-0.3237,0.00,0.67,0.12,-110.96,10.82,-22.65
0.577468,-0.1743,-0.9292,-0.3242,-0.24,0.73,0.12,-110.95,10.82,-22.64
0.577468,-0.1729,-0.9297,-0.3252,-0.12,0.85,0.12,-110.95,10.82,-22.63
0.607530,-0.1733,-0.9292,-0.3237,-0.06,0.73,0.18,-110.94,10.82,-22.62
0.607530,-0.1753,-0.9282,-0.3257,0.00,0.79,0.24,-110.93,10.82,-22.61
0.637163,-0.1753,-0.9292,-0.3252,0.00,0.85,0.12,-110.92,10.82,-22.60
0.637163,-0.1748,-0.9302,-0.3262,0.12,0.61,0.18,-110.92,10.82,-22.59
0.697329,-0.1738,-0.9292,-0.3262,0.37,0.73,0.12,-110.91,10.82,-22.58
0.697329,-0.1748,-0.9287,-0.3257,0.43,0.98,0.24,-110.91,10.82,-22.58
0.727356,-0.1743,-0.9277,-0.3257,0.55,0.98,0.12,-110.90,10.82,-22.57
0.727356,-0.1733,-0.9277,-0.3242,0.67,1.04,0.12,-110.90,10.82,-22.56
0.787167,-0.1733,-0.9282,-0.3232,0.73,0.92,0.12,-110.89,10.82,-22.55
0.787167,-0.1758,-0.9287,-0.3203,0.73,0.92,0.12,-110.89,10.82,-22.55
0.817424,-0.1743,-0.9282,-0.3213,0.61,1.04,0.12,-110.89,10.82,-22.54
0.817424,-0.1738,-0.9302,-0.3242,0.61,1.10,0.12,-110.88,10.82,-22.53
0.847440,-0.1733,-0.9302,-0.3228,0.61,1.22,0.12,-110.87,10.82,-22.53
0.847440,-0.1758,-0.9316,-0.3228,0.61,1.46,0.06,-110.87,10.82,-22.52
0.907611,-0.1768,-0.9312,-0.3193,0.18,1.65,0.31,-110.86,10.82,-22.52
0.907611,-0.1763,-0.9316,-0.3198,-0.31,1.65,0.43,-110.86,10.82,-22.51
0.941574,-0.1753,-0.9312,-0.3223,-0.85,1.89,0.61,-110.85,10.82,-22.51
0.941574,-0.1768,-0.9312,-0.3242,-1.04,2.01,0.67,-110.85,10.82,-22.50
0.967475,-0.1738,-0.9312,-0.3291,-1.22,2.75,0.49,-110.85,10.82,-22.51
0.967475,-0.1733,-0.9307,-0.3291,-1.40,2.81,0.55,-110.89,10.81,-22.57
1.027426,-0.1768,-0.9307,-0.3311,-1.53,2.08,0.67,-110.93,10.81,-22.62
1.027426,-0.1699,-0.9243,-0.3159,-2.08,0.67,0.79,-110.97,10.81,-22.64
1.057419,-0.1777,-0.9268,-0.3301,-2.62,1.53,0.49,-111.02,10.82,-22.66
1.057419,-0.1846,-0.9331,-0.3379,-2.32,1.89,0.06,-111.08,10.82,-22.70
1.087864,-0.1714,-0.9297,-0.3330,-1.34,1.40,0.18,-111.12,10.81,-22.74
1.087864,-0.1724,-0.9272,-0.3325,-0.79,0.31,0.85,-111.14,10.81,-22.76
1.147404,-0.1797,-0.9258,-0.3247,-0.92,-0.18,0.85,-111.16,10.83,-22.76
1.147404,-0.1787,-0.9233,-0.3257,-1.22,-0.12,0.31,-111.18,10.85,-22.76
1.177490,-0.1719,-0.9253,-0.3301,-1.46,0.18,0.06,-111.21,10.85,-22.77
1.177490,-0.1714,-0.9243,-0.3335,-1.53,0.24,0.24,-111.24,10.86,-22.77
1.207805,-0.1753,-0.9258,-0.3281,-1.40,0.18,0.31,-111.27,10.87,-22.78
1.207805,-0.1807,-0.9282,-0.3325,-1.28,0.12,0.00,-111.30,10.87,-22.79
1.267383,-0.1763,-0.9287,-0.3325,-1.28,-0.18,-0.18,-111.32,10.87,-22.79
1.267383,-0.1768,-0.9258,-0.3369,-1.28,-0.61,-0.18,-111.35,10.87,-22.78
1.297426,-0.1768,-0.9282,-0.3354,-1.16,-0.98,-0.24,-111.34,10.87,-22.77
1.297426,-0.1704,-0.9258,-0.3335,-0.55,-1.10,-0.67,-111.33,10.88,-22.77
1.327427,-0.1670,-0.9336,-0.3320,0.12,0.00,-0.85,-111.32,10.88,-22.76
1.327427,-0.1689,-0.9312,-0.3477,1.28,-0.37,-0.67,-111.32,10.88,-22.75
1.388120,-0.1719,-0.9297,-0.3491,1.53,-1.89,-0.55,-111.31,10.88,-22.75
1.388120,-0.1748,-0.9302,-0.3438,1.22,-3.17,-0.61,-111.29,10.88,-22.71
1.417398,-0.1733,-0.9263,-0.3398,1.40,-3.91,-0.98,-111.25,10.89,-22.64
1.417398,-0.1748,-0.9204,-0.3345,2.14,-4.21,-1.65,-111.20,10.90,-22.55
1.447792,-0.1797,-0.9194,-0.3271,2.08,-4.82,-2.38,-111.14,10.89,-22.46
1.447792,-0.1807,-0.9224,-0.3223,1.59,-5.25,-2.50,-111.08,10.88,-22.34
1.509113,-0.1743,-0.9238,-0.3232,1.16,-5.98,-2.20,-111.03,10.87,-22.21
1.509113,-0.1694,-0.9253,-0.3237,0.98,-6.47,-1.65,-110.98,10.88,-22.08
1.537853,-0.1685,-0.9272,-0.3242,0.67,-6.65,-1.34,-110.95,10.90,-21.95
1.537853,-0.1699,-0.9292,-0.3237,0.73,-6.23,-1.34,-110.91,10.91,-21.81
1.567416,-0.1724,-0.9307,-0.3188,0.79,-5.92,-1.46,-110.87,10.93,-21.69
1.567416,-0.1724,-0.9287,-0.3174,0.98,-5.62,-1.40,-110.82,10.94,-21.57
1.627412,-0.1733,-0.9277,-0.3164,1.22,-5.43,-1.53,-110.78,10.95,-21.45
1.627412,-0.1738,-0.9277,-0.3169,1.53,-5.43,-1.65,-110.74,10.96,-21.34
1.657563,-0.1753,-0.9302,-0.3164,1.53,-5.74,-1.89,-110.68,10.97,-21.21
1.657563,-0.1748,-0.9316,-0.3174,1.40,-5.98,-2.08,-110.63,10.97,-21.09
1.701098,-0.1719,-0.9316,-0.3188,1.77,-5.74,-2.14,-110.57,10.97,-20.96
1.701098,-0.1719,-0.9316,-0.3223,2.20,-5.31,-2.08,-110.51,10.97,-20.84
1.747387,-0.1714,-0.9287,-0.3203,2.56,-4.94,-2.20,-110.44,10.96,-20.73
1.747387,-0.1738,-0.9258,-0.3154,2.87,-4.82,-2.32,-110.36,10.95,-20.62
1.777326,-0.1748,-0.9258,-0.3149,3.23,-4.76,-2.69,-110.28,10.94,-20.51
1.777326,-0.1753,-0.9258,-0.3164,3.48,-4.58,-2.99,-110.19,10.91,-20.40
1.807982,-0.1758,-0.9292,-0.3184,3.78,-4.64,-3.17,-110.10,10.89,-20.29
1.807982,-0.1729,-0.9287,-0.3184,4.03,-4.64,-3.17,-110.00,10.86,-20.18
1.867413,-0.1733,-0.9336,-0.3125,4.33,-4.88,-3.05,-109.90,10.83,-20.07
1.867413,-0.1675,-0.9297,-0.3066,4.21,-5.49,-3.17,-109.79,10.81,-19.95
1.897374,-0.1675,-0.9268,-0.3037,3.60,-5.80,-3.11,-109.69,10.79,-19.81
1.897374,-0.1694,-0.9326,-0.3135,4.15,-4.64,-3.30,-109.59,10.76,-19.69
1.927652,-0.1709,-0.9404,-0.3008,4.70,-4.52,-3.54,-109.48,10.73,-19.59
1.927652,-0.1616,-0.9360,-0.2930,4.52,-4.94,-3.36,-109.36,10.69,-19.47
1.988583,-0.1636,-0.9370,-0.2900,4.33,-5.68,-2.93,-109.25,10.67,-19.35
1.988583,-0.1733,-0.9414,-0.2856,3.97,-5.92,-2.81,-109.14,10.65,-19.22
2.017451,-0.1685,-0.9419,-0.2866,3.60,-5.00,-2.81,-109.04,10.63,-19.09
2.017451,-0.1626,-0.9419,-0.2896,3.48,-3.85,-2.69,-108.96,10.61,-18.99
2.048271,-0.1641,-0.9448,-0.2891,3.42,-3.23,-2.26,-108.87,10.58,-18.91
2.048271,-0.1650,-0.9443,-0.2842,3.30,-2.69,-1.95,-108.79,10.56,-18.84
2.108559,-0.1665,-0.9473,-0.2871,3.23,-2.14,-1.71,-108.72,10.54,-18.78
2.108559,-0.1650,-0.9482,-0.2881,3.05,-2.01,-1.53,-108.64,10.52,-18.73
2.138526,-0.1660,-0.9453,-0.2856,2.69,-1.89,-1.16,-108.58,10.51,-18.68
2.138526,-0.1641,-0.9492,-0.2822,2.32,-1.59,-0.92,-108.52,10.50,-18.64
2.198168,-0.1611,-0.9468,-0.2808,2.14,-0.73,-0.79,-108.47,10.50,-18.62
2.198168,-0.1626,-0.9487,-0.2808,1.77,-0.31,-0.18,-108.42,10.49,-18.61
2.227519,-0.1650,-0.9517,-0.2822,1.34,-0.85,0.61,-108.39,10.50,-18.61
2.227519,-0.1665,-0.9492,-0.2788,0.98,-0.79,1.10,-108.36,10.52,-18.59
2.258232,-0.1665,-0.9473,-0.2822,0.55,-0.43,1.34,-108.34,10.55,-18.59
2.258232,-0.1655,-0.9473,-0.2852,0.43,-0.06,1.65,-108.34,10.59,-18.60
2.318189,-0.1675,-0.9453,-0.2881,0.61,0.24,1.77,-108.33,10.62,-18.62
2.318189,-0.1709,-0.9458,-0.2866,0.85,0.18,2.08,-108.31,10.66,-18.63
2.347399,-0.1719,-0.9438,-0.2856,1.28,0.12,2.20,-108.29,10.70,-18.65
2.347399,-0.1743,-0.9448,-0.2832,1.53,0.24,2.32,-108.26,10.74,-18.68
2.378192,-0.1777,-0.9434,-0.2817,1.53,0.00,2.44,-108.23,10.79,-18.70
2.378192,-0.1758,-0.9434,-0.2827,1.46,-0.24,2.62,-108.20,10.84,-18.72
2.438760,-0.1758,-0.9424,-0.2832,1.71,-0.49,2.50,-108.17,10.90,-18.73
2.438760,-0.1777,-0.9429,-0.2866,1.95,-0.43,2.38,-108.13,10.95,-18.74
2.467419,-0.1768,-0.9395,-0.2920,1.65,-0.61,1.89,-108.09,10.99,-18.74
2.467419,-0.1689,-0.9380,-0.2871,0.98,0.12,0.73,-108.07,11.02,-18.75
2.498131,-0.1743,-0.9360,-0.2842,1.22,0.12,-0.24,-108.05,11.02,-18.76
2.498131,-0.1792,-0.9370,-0.2803,2.62,-1.22,-0.85,-108.01,11.02,-18.75
2.558175,-0.1860,-0.9399,-0.2720,3.36,-2.87,-1.10,-107.94,11.01,-18.70
2.558175,-0.1890,-0.9424,-0.2661,3.11,-4.15,-1.59,-107.85,11.01,-18.63
2.589072,-0.1860,-0.9438,-0.2617,2.26,-5.00,-1.95,-107.78,11.00,-18.53
2.589072,-0.1846,-0.9458,-0.2627,1.77,-4.76,-2.14,-107.72,10.99,-18.43
2.618193,-0.1851,-0.9482,-0.2656,1.34,-4.70,-2.14,-107.66,10.98,-18.33
2.618193,-0.1807,-0.9463,-0.2720,1.10,-4.39,-2.38,-107.62,10.96,-18.23
2.677429,-0.1782,-0.9482,-0.2744,0.85,-3.42,-2.56,-107.58,10.94,-18.14
2.677429,-0.1758,-0.9463,-0.2666,0.92,-3.42,-2.93,-107.55,10.90,-18.06
2.721381,-0.1704,-0.9424,-0.2529,0.61,-3.91,-2.75,-107.51,10.87,-17.97
2.721381,-0.1772,-0.9473,-0.2676,0.49,-3.17,-2.69,-107.49,10.84,-17.89
2.737711,-0.1855,-0.9561,-0.2725,0.85,-2.69,-2.93,-107.46,10.80,-17.83
2.737711,-0.1733,-0.9512,-0.2627,1.40,-2.69,-2.99,-107.42,10.76,-17.75
2.798170,-0.1675,-0.9468,-0.2632,1.65,-3.30,-2.56,-107.37,10.72,-17.69
2.798170,-0.1768,-0.9473,-0.2588,1.22,-3.91,-2.01,-107.33,10.70,-17.61
2.827424,-0.1777,-0.9507,-0.2563,0.43,-3.66,-2.08,-107.30,10.68,-17.53
2.827424,-0.1670,-0.9512,-0.2612,-0.43,-2.93,-2.08,-107.29,10.66,-17.45
2.858267,-0.1636,-0.9521,-0.2646,-0.73,-2.50,-1.77,-107.29,10.65,-17.39
2.858267,-0.1675,-0.9497,-0.2617,-0.73,-2.01,-1.53,-107.29,10.62,-17.34
2.918336,-0.1699,-0.9492,-0.2646,-0.79,-1.46,-1.40,-107.30,10.61,-17.30
2.918336,-0.1694,-0.9502,-0.2671,-0.98,-0.98,-1.28,-107.31,10.59,-17.28
2.947441,-0.1689,-0.9482,-0.2720,-0.79,-0.92,-1.16,-107.33,10.57,-17.25
2.947441,-0.1680,-0.9492,-0.2666,-1.04,-0.79,-0.85,-107.34,10.56,-17.24
2.978192,-0.1670,-0.9482,-0.2729,-0.98,-0.37,-0.85,-107.35,10.55,-17.23
2.978192,-0.1641,-0.9473,-0.2705,-0.92,0.31,-1.04,-107.37,10.53,-17.22
3.039255,-0.1655,-0.9507,-0.2710,-0.85,0.31,-0.79,-107.39,10.51,-17.23
3.039255,-0.1680,-0.9482,-0.2715,-0.73,0.43,-0.24,-107.40,10.50,-17.24
3.067429,-0.1704,-0.9463,-0.2695,-0.67,0.98,-0.12,-107.42,10.49,-17.25
3.067429,-0.1689,-0.9443,-0.2695,-0.67,1.34,-0.06,-107.43,10.49,-17.28
3.098176,-0.1646,-0.9463,-0.2710,-0.85,1.59,0.18,-107.45,10.48,-17.31
3.098176,-0.1650,-0.9458,-0.2710,-0.92,2.01,0.37,-107.47,10.48,-17.36
3.158259,-0.1655,-0.9448,-0.2700,-0.92,2.32,0.49,-107.50,10.48,-17.41
3.158259,-0.1685,-0.9458,-0.2681,-0.92,2.69,0.61,-107.53,10.48,-17.46
3.190218,-0.1704,-0.9468,-0.2651,-0.98,2.87,0.92,-107.56,10.48,-17.52
3.190218,-0.1729,-0.9478,-0.2651,-1.22,2.81,1.10,-107.59,10.49,-17.59
3.218184,-0.1733,-0.9473,-0.2642,-1.16,2.75,1.16,-107.62,10.49,-17.66
3.218184,-0.1709,-0.9463,-0.2651,-0.73,2.93,1.16,-107.65,10.50,-17.72
3.278253,-0.1694,-0.9492,-0.2705,-0.67,3.17,1.28,-107.67,10.51,-17.80
3.278253,-0.1636,-0.9512,-0.2729,-0.55,3.66,1.10,-107.69,10.51,-17.88
3.307745,-0.1611,-0.9531,-0.2773,-0.31,3.85,1.04,-107.72,10.51,-17.96
3.307745,-0.1592,-0.9517,-0.2812,0.00,3.60,1.04,-107.73,10.52,-18.05
3.339493,-0.1582,-0.9502,-0.2822,0.18,3.17,1.04,-107.74,10.52,-18.12
3.339493,-0.1577,-0.9492,-0.2812,0.43,2.87,0.98,-107.74,10.52,-18.19
3.398318,-0.1558,-0.9463,-0.2803,0.61,2.93,0.55,-107.74,10.52,-18.25
3.398318,-0.1582,-0.9438,-0.2822,0.67,2.14,0.31,-107.73,10.52,-18.31
3.427377,-0.1602,-0.9443,-0.2793,0.67,1.10,0.06,-107.72,10.52,-18.34
3.427377,-0.1636,-0.9434,-0.2734,0.55,1.04,-0.12,-107.71,10.51,-18.36
3.458258,-0.1650,-0.9424,-0.2759,0.55,1.71,-0.61,-107.70,10.50,-18.40
3.458258,-0.1680,-0.9434,-0.2690,0.31,0.98,-0.67,-107.69,10.48,-18.42
3.518208,-0.1553,-0.9380,-0.2598,0.00,-0.31,-0.79,-107.69,10.46,-18.42
3.518208,-0.1621,-0.9409,-0.2769,-0.43,0.00,-0.98,-107.69,10.45,-18.41
3.547535,-0.1729,-0.9453,-0.2842,0.00,0.24,-1.28,-107.69,10.43,-18.41
3.547535,-0.1641,-0.9453,-0.2773,0.67,-0.12,-1.53,-107.68,10.40,-18.41
3.608575,-0.1562,-0.9458,-0.2764,1.04,-0.61,-1.34,-107.66,10.38,-18.39
3.608575,-0.1636,-0.9448,-0.2729,1.22,-1.34,-1.16,-107.63,10.36,-18.37
3.637370,-0.1689,-0.9487,-0.2690,1.04,-1.34,-1.34,-107.60,10.34,-18.34
3.637370,-0.1631,-0.9492,-0.2705,0.85,-1.40,-1.40,-107.57,10.32,-18.30
3.667439,-0.1572,-0.9497,-0.2725,1.04,-1.22,-1.10,-107.55,10.31,-18.28
3.667439,-0.1606,-0.9507,-0.2700,1.10,-1.77,-0.85,-107.52,10.30,-18.24
3.728197,-0.1650,-0.9497,-0.2666,0.79,-2.32,-0.67,-107.49,10.29,-18.20
3.728197,-0.1641,-0.9492,-0.2642,0.24,-2.50,-0.92,-107.47,10.29,-18.15
3.770940,-0.1646,-0.9492,-0.2676,0.00,-2.50,-1.04,-107.46,10.29,-18.10
3.770940,-0.1621,-0.9502,-0.2642,-0.43,-2.50,-1.16,-107.45,10.28,-18.05
3.787932,-0.1606,-0.9492,-0.2676,-0.43,-2.44,-1.22,-107.45,10.28,-17.99
3.787932,-0.1587,-0.9492,-0.2661,-0.31,-2.14,-1.40,-107.45,10.27,-17.94
3.848089,-0.1592,-0.9512,-0.2651,-0.49,-2.56,-1.28,-107.45,10.25,-17.89
3.848089,-0.1577,-0.9512,-0.2681,-0.43,-2.75,-0.85,-107.44,10.24,-17.83
3.880169,-0.1597,-0.9487,-0.2656,-0.49,-2.38,-0.73,-107.44,10.24,-17.78
3.880169,-0.1592,-0.9487,-0.2671,-0.55,-1.77,-0.61,-107.44,10.24,-17.74
3.910477,-0.1587,-0.9502,-0.2671,-0.73,-1.22,-0.37,-107.45,10.24,-17.71
3.910477,-0.1606,-0.9502,-0.2710,-0.85,-0.85,-0.18,-107.46,10.24,-17.69
3.968248,-0.1606,-0.9521,-0.2710,-1.04,-0.67,-0.06,-107.47,10.25,-17.67
3.968248,-0.1636,-0.9531,-0.2729,-1.10,-0.24,0.12,-107.50,10.26,-17.66
3.998317,-0.1626,-0.9512,-0.2734,-1.10,0.00,0.31,-107.52,10.26,-17.67
3.998317,-0.1646,-0.9487,-0.2729,-1.10,0.24,0.67,-107.54,10.27,-17.68
4.027813,-0.1660,-0.9478,-0.2720,-0.98,0.49,0.85,-107.56,10.29,-17.69
4.027813,-0.1650,-0.9463,-0.2725,-1.10,0.85,1.04,-107.58,10.31,-17.71
4.088206,-0.1641,-0.9443,-0.2720,-1.10,0.98,1.16,-107.61,10.32,-17.74
4.088206,-0.1626,-0.9468,-0.2734,-0.85,1.34,1.16,-107.59,10.31,-17.68
4.117434,-0.1636,-0.9458,-0.2744,-0.73,1.65,1.16,-107.58,10.30,-17.64
4.117434,-0.1646,-0.9458,-0.2749,-0.61,1.89,1.22,-107.57,10.29,-17.63
4.148193,-0.1650,-0.9448,-0.2729,-0.67,2.08,1.28,-107.57,10.29,-17.63
4.148193,-0.1646,-0.9443,-0.2715,-0.98,2.01,1.22,-107.57,10.29,-17.62
4.208559,-0.1641,-0.9448,-0.2734,-1.22,1.95,1.16,-107.56,10.29,-17.62
4.208559,-0.1655,-0.9463,-0.2769,-1.28,1.95,1.28,-107.56,10.28,-17.63
4.237397,-0.1675,-0.9468,-0.2778,-1.10,2.14,1.22,-107.56,10.28,-17.63
4.237397,-0.1675,-0.9448,-0.2832,-0.79,2.32,1.10,-107.56,10.28,-17.63
4.268165,-0.1660,-0.9458,-0.2754,-0.85,2.44,1.04,-107.57,10.29,-17.66
4.268165,-0.1660,-0.9468,-0.2773,-0.73,1.83,0.92,-107.59,10.30,-17.70
4.328191,-0.1616,-0.9395,-0.2661,-1.40,0.85,1.04,-107.62,10.31,-17.74
4.328191,-0.1699,-0.9458,-0.2832,-1.71,1.89,0.92,-107.66,10.33,-17.77
4.357423,-0.1729,-0.9502,-0.2817,-1.28,2.26,0.55,-107.69,10.33,-17.83
4.357423,-0.1626,-0.9473,-0.2764,-0.73,2.01,0.67,-107.72,10.33,-17.87
4.388193,-0.1626,-0.9448,-0.2812,-0.37,1.04,1.16,-107.74,10.34,-17.91
4.388193,-0.1743,-0.9448,-0.2749,-0.43,0.37,1.28,-107.74,10.37,-17.93
4.448149,-0.1733,-0.9443,-0.2744,-0.79,0.55,0.85,-107.76,10.39,-17.95
4.448149,-0.1646,-0.9438,-0.2808,-1.28,1.34,0.67,-107.79,10.40,-17.98
4.477470,-0.1660,-0.9453,-0.2852,-1.53,0.73,0.79,-107.81,10.40,-18.00
4.477470,-0.1694,-0.9424,-0.2783,-1.40,0.85,0.79,-107.81,10.40,-18.00
4.508517,-0.1699,-0.9453,-0.2808,-1.22,0.98,0.61,-107.81,10.40,-18.00
4.508517,-0.1714,-0.9463,-0.2832,-1.28,1.04,0.43,-107.81,10.40,-18.01
4.568142,-0.1714,-0.9448,-0.2837,-1.34,0.79,0.37,-107.81,10.40,-18.01
4.568142,-0.1680,-0.9434,-0.2827,-1.46,0.92,0.37,-107.81,10.40,-18.02
4.597448,-0.1694,-0.9404,-0.2866,-1.28,0.79,0.00,-107.81,10.40,-18.02
4.597448,-0.1709,-0.9399,-0.2842,-1.22,0.79,-0.18,-107.81,10.40,-18.02
4.628183,-0.1689,-0.9424,-0.2847,-0.79,0.55,0.00,-107.81,10.40,-18.03
4.628183,-0.1709,-0.9404,-0.2842,-0.61,0.67,0.12,-107.81,10.40,-18.03
4.688163,-0.1689,-0.9424,-0.2822,-0.79,0.79,0.18,-107.81,10.40,-18.03
4.688163,-0.1665,-0.9419,-0.2861,-0.92,1.28,0.18,-107.81,10.40,-18.03
4.717400,-0.1680,-0.9409,-0.2866,-0.92,1.65,0.24,-107.81,10.40,-18.04
4.717400,-0.1699,-0.9404,-0.2866,-0.85,1.77,0.12,-107.81,10.40,-18.05
4.748192,-0.1704,-0.9419,-0.2856,-0.61,2.01,0.12,-107.82,10.40,-18.05
4.748192,-0.1709,-0.9429,-0.2866,-0.49,2.08,0.12,-107.82,10.40,-18.06
4.808357,-0.1694,-0.9424,-0.2876,-0.55,2.01,0.18,-107.82,10.40,-18.06
4.808357,-0.1699,-0.9448,-0.2871,-0.73,2.14,0.31,-107.82,10.40,-18.07
4.837178,-0.1699,-0.9424,-0.2876,-0.92,2.56,0.37,-107.83,10.41,-18.07
4.837178,-0.1694,-0.9438,-0.2891,-0.79,2.69,0.43,-107.83,10.41,-18.07
4.868114,-0.1694,-0.9453,-0.2871,-0.67,2.69,0.73,-107.83,10.41,-18.08
4.868114,-0.1675,-0.9429,-0.2861,-0.85,2.93,0.85,-107.85,10.41,-18.12
4.928322,-0.1685,-0.9424,-0.2881,-1.28,3.11,1.04,-107.88,10.42,-18.19
4.928322,-0.1689,-0.9419,-0.2905,-1.46,3.30,1.16,-107.92,10.42,-18.26
4.957477,-0.1675,-0.9409,-0.2920,-1.46,3.60,1.28,-107.96,10.43,-18.35
4.957477,-0.1709,-0.9414,-0.2896,-1.53,3.30,1.59,-108.00,10.43,-18.42
5.018209,-0.1714,-0.9404,-0.2920,-1.77,2.99,1.65,-108.05,10.45,-18.50
5.018209,-0.1704,-0.9404,-0.2949,-1.83,2.87,1.65,-108.09,10.46,-18.57
5.047427,-0.1719,-0.9395,-0.2983,-1.89,2.75,1.77,-108.14,10.49,-18.64
5.047427,-0.1719,-0.9375,-0.2983,-1.83,2.44,1.71,-108.19,10.50,-18.70
5.078195,-0.1724,-0.9395,-0.3037,-1.53,2.56,1.71,-108.23,10.52,-18.77
5.078195,-0.1719,-0.9380,-0.2925,-1.65,2.14,1.59,-108.27,10.55,-18.83
5.138205,-0.1680,-0.9341,-0.2930,-1.71,0.73,1.46,-108.31,10.57,-18.87
5.138205,-0.1685,-0.9316,-0.3013,-1.46,0.98,1.34,-108.35,10.59,-18.90
5.167413,-0.1797,-0.9404,-0.3120,-0.43,1.59,1.10,-108.37,10.61,-18.93
5.167413,-0.1743,-0.9355,-0.2954,0.06,1.34,0.73,-108.38,10.62,-18.97
5.198175,-0.1660,-0.9321,-0.2993,0.43,0.55,0.67,-108.38,10.63,-19.00
5.198175,-0.1743,-0.9336,-0.2949,0.43,-0.31,0.92,-108.37,10.65,-19.01
5.257885,-0.1812,-0.9346,-0.2930,0.31,-0.49,0.55,-108.36,10.67,-19.01
5.257885,-0.1724,-0.9385,-0.2998,0.12,-0.73,0.24,-108.35,10.68,-18.99
5.288471,-0.1704,-0.9351,-0.3018,0.55,0.00,0.24,-108.34,10.69,-18.99
5.288471,-0.1743,-0.9380,-0.2983,0.73,-0.12,0.24,-108.33,10.70,-19.00
5.317417,-0.1748,-0.9385,-0.2959,0.73,-0.12,0.06,-108.31,10.70,-18.99
5.317417,-0.1753,-0.9399,-0.2993,0.49,0.00,-0.06,-108.30,10.71,-19.00
5.378240,-0.1733,-0.9375,-0.3008,0.61,0.00,-0.24,-108.29,10.70,-19.00
5.378240,-0.1704,-0.9370,-0.2964,0.61,0.06,-0.31,-108.27,10.70,-19.00
5.443113,-0.1733,-0.9385,-0.2998,0.67,-0.06,-0.43,-108.26,10.70,-19.00
5.443113,-0.1753,-0.9375,-0.2969,0.67,-0.12,-0.49,-108.24,10.69,-19.00
5.443151,-0.1733,-0.9399,-0.2974,0.43,-0.92,-0.18,-108.23,10.68,-18.98
5.443151,-0.1729,-0.9390,-0.2969,0.43,-1.10,0.00,-108.22,10.69,-18.97
5.498162,-0.1724,-0.9380,-0.2949,0.31,-0.92,0.00,-108.20,10.70,-18.95
5.498162,-0.1694,-0.9385,-0.2959,0.06,-0.43,-0.06,-108.19,10.70,-18.95
5.527210,-0.1704,-0.9385,-0.2974,0.00,0.00,-0.06,-108.19,10.71,-18.95
5.527210,-0.1729,-0.9380,-0.2979,0.00,0.24,0.00,-108.19,10.71,-18.95
5.558098,-0.1748,-0.9404,-0.2979,0.00,0.00,0.06,-108.19,10.71,-18.96
5.558098,-0.1763,-0.9385,-0.2964,0.06,-0.18,0.00,-108.19,10.71,-18.96
5.618282,-0.1748,-0.9385,-0.2944,0.00,-0.31,0.00,-108.19,10.71,-18.96
5.618282,-0.1729,-0.9365,-0.2964,-0.06,-0.12,0.00,-108.19,10.72,-18.95
5.647347,-0.1699,-0.9355,-0.2979,0.00,0.00,-0.06,-108.19,10.72,-18.96
5.647347,-0.1694,-0.9375,-0.2979,0.18,0.43,-0.24,-108.19,10.72,-18.96
5.678126,-0.1714,-0.9370,-0.2964,0.49,0.67,-0.37,-108.18,10.71,-18.97
5.678126,-0.1719,-0.9370,-0.2969,0.79,1.04,-0.37,-108.17,10.70,-18.99
5.738323,-0.1714,-0.9375,-0.2964,1.16,1.28,-0.18,-108.15,10.68,-19.01
5.738323,-0.1733,-0.9395,-0.2964,1.53,1.40,-0.06,-108.13,10.68,-19.04
5.767508,-0.1743,-0.9429,-0.2959,1.59,1.46,-0.06,-108.10,10.67,-19.08
5.767508,-0.1753,-0.9434,-0.2949,1.34,1.10,-0.12,-108.07,10.66,-19.11
5.811340,-0.1738,-0.9429,-0.2915,0.79,0.55,-0.06,-108.06,10.65,-19.13
5.811340,-0.1733,-0.9409,-0.2896,0.55,0.37,-0.06,-108.04,10.65,-19.14
5.857977,-0.1719,-0.9399,-0.2891,0.31,0.06,0.06,-108.03,10.65,-19.15
5.857977,-0.1699,-0.9390,-0.2925,0.12,0.00,0.18,-108.03,10.66,-19.16
5.890839,-0.1685,-0.9414,-0.2979,0.24,0.85,0.12,-108.02,10.66,-19.17
5.890839,-0.1685,-0.9419,-0.2881,0.00,1.04,0.31,-108.03,10.66,-19.20
5.918701,-0.1655,-0.9395,-0.2871,0.24,0.37,0.31,-108.03,10.66,-19.22
5.918701,-0.1714,-0.9360,-0.2876,-0.31,-0.06,0.55,-108.03,10.67,-19.23
5.978259,-0.1802,-0.9429,-0.3027,-0.24,0.49,0.31,-108.03,10.68,-19.24
5.978259,-0.1816,-0.9434,-0.2959,0.37,0.73,-0.06,-108.08,10.69,-19.29
6.008371,-0.1680,-0.9409,-0.2920,1.10,0.31,-0.18,-108.12,10.70,-19.31
6.008371,-0.1694,-0.9365,-0.2925,1.53,-0.61,0.37,-108.14,10.70,-19.34
6.038218,-0.1768,-0.9370,-0.2866,1.53,-0.92,0.49,-108.15,10.70,-19.35
6.038218,-0.1738,-0.9385,-0.2861,1.16,0.00,0.12,-108.17,10.70,-19.36
6.098236,-0.1670,-0.9409,-0.2910,0.92,0.73,0.18,-108.18,10.70,-19.37
6.098236,-0.1704,-0.9404,-0.2905,0.85,0.98,0.55,-108.19,10.71,-19.39
6.127527,-0.1758,-0.9375,-0.2871,0.61,0.61,0.49,-108.20,10.71,-19.40
6.127527,-0.1763,-0.9395,-0.2910,0.49,0.55,0.37,-108.20,10.71,-19.40
6.158501,-0.1738,-0.9409,-0.2905,0.49,0.18,0.31,-108.21,10.71,-19.41
6.158501,-0.1748,-0.9385,-0.2935,0.67,0.12,0.31,-108.22,10.71,-19.41
6.218154,-0.1729,-0.9404,-0.2915,0.73,0.06,0.24,-108.28,10.72,-19.47
6.218154,-0.1714,-0.9385,-0.2915,0.98,0.31,-0.18,-108.28,10.71,-19.51
6.247172,-0.1733,-0.9390,-0.2896,1.04,0.31,-0.37,-108.28,10.71,-19.54
6.247172,-0.1714,-0.9399,-0.2891,1.28,0.00,-0.18,-108.29,10.71,-19.58
6.277983,-0.1748,-0.9409,-0.2881,1.46,-0.18,-0.12,-108.29,10.71,-19.61
6.277983,-0.1748,-0.9390,-0.2866,1.59,-0.43,-0.31,-108.29,10.71,-19.64
6.339906,-0.1714,-0.9380,-0.2881,1.65,-0.61,-0.31,-108.29,10.71,-19.67
6.339906,-0.1733,-0.9370,-0.2915,1.95,-0.67,-0.37,-108.29,10.71,-19.69
6.370219,-0.1724,-0.9370,-0.2915,2.38,-0.92,-0.55,-108.29,10.71,-19.72
6.370219,-0.1719,-0.9385,-0.2930,2.99,-1.34,-0.79,-108.25,10.71,-19.70
6.428294,-0.1704,-0.9385,-0.2915,3.72,-2.08,-1.28,-108.18,10.70,-19.67
6.428294,-0.1660,-0.9355,-0.2920,4.70,-2.87,-1.83,-108.08,10.68,-19.61
6.458792,-0.1606,-0.9316,-0.2935,5.86,-3.91,-2.69,-107.96,10.66,-19.53
6.458792,-0.1592,-0.9277,-0.2905,7.45,-5.31,-3.97,-107.81,10.62,-19.42
6.488064,-0.1611,-0.9233,-0.2822,9.03,-6.96,-5.55,-107.62,10.57,-19.27
6.488064,-0.1577,-0.9214,-0.2725,10.44,-8.79,-7.45,-107.39,10.49,-19.08
6.548731,-0.1538,-0.9229,-0.2617,11.35,-9.89,-9.40,-107.12,10.38,-18.85
6.548731,-0.1504,-0.9258,-0.2583,12.15,-9.77,-11.35,-106.85,10.23,-18.59
6.577506,-0.1514,-0.9316,-0.2627,12.88,-10.25,-13.06,-106.55,10.05,-18.34
6.577506,-0.1470,-0.9419,-0.2651,13.61,-12.21,-14.71,-106.24,9.84,-18.04
6.608699,-0.1367,-0.9487,-0.2607,14.65,-12.88,-15.99,-105.90,9.60,-17.72
6.608699,-0.1255,-0.9448,-0.2583,15.44,-13.79,-16.66,-105.55,9.35,-17.37
6.668106,-0.1187,-0.9331,-0.2578,15.93,-15.38,-17.94,-105.18,9.09,-17.00
6.668106,-0.1162,-0.9326,-0.2534,16.42,-16.85,-19.90,-104.80,8.80,-16.59
6.697336,-0.1167,-0.9312,-0.2417,17.88,-16.48,-22.09,-104.39,8.46,-16.17
6.697336,-0.1143,-0.9292,-0.2324,20.51,-16.11,-23.99,-103.95,8.09,-15.74
6.728230,-0.1123,-0.9287,-0.2305,23.68,-15.62,-25.15,-103.45,7.67,-15.33
6.728230,-0.1084,-0.9263,-0.1963,25.27,-15.93,-26.25,-102.91,7.24,-14.91
6.788225,-0.0962,-0.9243,-0.1733,26.86,-14.77,-27.89,-102.34,6.77,-14.50
6.788225,-0.0884,-0.9238,-0.1655,27.22,-11.54,-29.60,-101.76,6.25,-14.13
6.830887,-0.0898,-0.9385,-0.1714,28.50,-7.69,-31.01,-101.18,5.69,-13.83
6.830887,-0.0869,-0.9341,-0.1597,30.09,-7.32,-32.23,-100.57,5.09,-13.59
6.848080,-0.0679,-0.9268,-0.1528,31.68,-8.91,-33.33,-99.93,4.47,-13.33
6.848080,-0.0596,-0.9336,-0.1274,32.71,-9.03,-33.69,-99.27,3.83,-13.05
6.908611,-0.0635,-0.9478,-0.0972,32.53,-7.69,-34.24,-98.60,3.18,-12.79
6.908611,-0.0571,-0.9595,-0.0835,31.37,-6.47,-34.36,-97.95,2.51,-12.57
6.937374,-0.0425,-0.9810,-0.0791,30.27,-4.64,-33.33,-97.33,1.85,-12.39
6.937374,-0.0234,-0.9565,-0.0703,29.17,-4.58,-31.74,-96.73,1.21,-12.23
6.968255,0.2168,-0.7476,-0.0425,23.44,29.54,-29.79,-96.20,0.59,-12.37
6.968255,-0.2866,-1.3013,-0.0776,23.74,-5.74,-24.41,-95.71,0.02,-12.67
7.028302,-0.1055,-0.9907,0.0156,14.77,-31.07,-23.25,-95.34,-0.41,-12.17
7.028302,0.0459,-1.1426,-0.0991,20.51,-21.55,-25.39,-95.02,-0.86,-11.60
7.059110,0.0015,-1.0259,-0.0508,23.07,-15.69,-24.66,-94.58,-1.33,-11.22
7.059110,-0.0068,-1.0015,-0.0132,22.58,-18.37,-24.54,-94.14,-1.81,-10.86
7.088206,0.0591,-0.9922,-0.0098,22.64,-21.18,-23.99,-93.70,-2.27,-10.44
7.088206,0.0889,-0.9731,-0.0156,22.83,-23.19,-21.85,-93.27,-2.72,-9.98
7.148192,0.0601,-1.0405,-0.0479,22.77,-28.99,-18.37,-92.85,-3.10,-9.44
7.148192,0.0352,-1.0396,-0.0386,22.28,-36.44,-16.36,-92.44,-3.43,-8.78
7.177555,0.0430,-1.0000,-0.0005,20.20,-41.02,-16.78,-92.08,-3.75,-7.98
7.177555,0.0786,-0.9951,0.0210,18.49,-39.06,-17.52,-91.76,-4.08,-7.16
7.208870,0.0859,-0.9741,0.0308,18.13,-33.69,-18.92,-91.46,-4.44,-6.44
7.208870,0.0918,-0.9385,0.0234,18.98,-29.66,-20.75,-91.15,-4.84,-5.81
7.268180,0.1040,-0.9307,0.0146,20.87,-26.73,-22.71,-90.80,-5.28,-5.25
7.268180,0.0991,-0.9341,0.0200,24.90,-25.09,-24.66,-90.40,-5.76,-4.74
7.297426,0.0938,-0.9282,0.0532,30.33,-25.09,-27.40,-89.90,-6.30,-4.25
7.297426,0.1045,-0.9258,0.1099,33.57,-26.92,-28.87,-89.32,-6.88,-3.73
7.328232,0.1450,-0.9204,0.1431,33.51,-23.56,-28.26,-88.71,-7.47,-3.24
7.328232,0.1587,-0.9277,0.1445,33.69,-17.15,-24.96,-88.10,-8.03,-2.86
7.388206,0.1470,-0.9434,0.1274,34.42,-12.27,-19.96,-87.45,-8.48,-2.60
7.388206,0.1431,-0.9683,0.1309,33.51,-10.86,-16.24,-86.80,-8.85,-2.40
7.417408,0.1582,-0.9727,0.1455,31.68,-12.21,-15.01,-86.18,-9.18,-2.20
7.417408,0.1748,-0.9614,0.1274,27.59,-19.53,-15.08,-85.64,-9.50,-1.91
7.448189,0.1665,-1.0654,0.0576,24.90,-30.33,-20.51,-85.20,-9.90,-1.44
7.448189,0.2129,-1.0327,0.0215,23.99,-39.73,-28.02,-84.84,-10.48,-0.77
7.509423,0.2559,-0.9888,0.0483,24.96,-43.46,-31.13,-84.51,-11.17,0.01
7.509423,0.2778,-0.9443,0.1021,25.76,-40.65,-30.40,-84.17,-11.89,0.79
7.539979,0.2910,-0.9536,0.1499,25.76,-35.03,-29.60,-83.80,-12.57,1.48
7.539979,0.2964,-0.9692,0.1504,23.93,-29.66,-29.17,-83.44,-13.24,2.05
7.570131,0.2837,-0.9800,0.1333,22.09,-26.00,-29.42,-83.10,-13.90,2.53
7.570131,0.2656,-0.9487,0.1260,21.73,-24.17,-28.87,-82.77,-14.55,2.95
7.628270,0.2744,-0.9214,0.1406,24.23,-19.96,-27.10,-82.41,-15.17,3.32
7.628270,0.3105,-0.8989,0.1675,27.47,-12.82,-24.48,-81.96,-15.73,3.57
7.657386,0.3184,-0.9395,0.2070,28.87,-8.18,-20.81,-81.43,-16.21,3.70
7.657386,0.3101,-0.9561,0.2295,27.83,-7.08,-17.21,-80.88,-16.61,3.78
7.688174,0.3174,-0.9150,0.2261,25.51,-6.16,-14.77,-80.37,-16.94,3.86
7.688174,0.3228,-0.8809,0.2104,22.09,-6.65,-12.76,-79.91,-17.23,3.93
7.748219,0.3560,-1.0000,0.1870,19.35,-5.55,-13.79,-79.52,-17.51,4.00
7.748219,0.4009,-1.0205,0.1465,18.25,-0.43,-15.26,-79.16,-17.81,4.01
7.777459,0.3921,-0.9570,0.1416,17.82,4.39,-15.14,-78.75,-18.10,3.88
7.777459,0.3662,-0.9580,0.1797,17.33,1.22,-15.08,-78.35,-18.37,3.75
7.838597,0.3242,-0.9814,0.2300,16.17,-8.12,-14.28,-78.01,-18.68,3.74
7.838597,0.3086,-0.9912,0.2632,13.67,-18.07,-12.45,-77.79,-19.00,3.96
7.881799,0.3315,-0.9736,0.2646,10.68,-25.27,-11.66,-77.68,-19.34,4.36
7.881799,0.4087,-0.9624,0.2397,9.83,-27.47,-11.23,-77.65,-19.69,4.86
7.928133,0.4473,-0.9399,0.2290,10.38,-25.63,-10.25,-77.62,-20.02,5.36
7.928133,0.4316,-0.9248,0.2402,10.62,-24.29,-9.89,-77.58,-20.34,5.82
7.957371,0.4365,-0.9053,0.2607,10.19,-23.62,-8.67,-77.54,-20.63,6.27
7.957371,0.4580,-0.9014,0.2656,8.97,-20.75,-6.59,-77.50,-20.88,6.70
7.988241,0.4473,-0.9136,0.2471,7.75,-15.69,-5.07,-77.46,-21.08,7.05
7.988241,0.4248,-0.9141,0.2104,6.77,-14.65,-4.88,-77.42,-21.24,7.33
8.017506,0.4414,-0.9053,0.1895,6.35,-15.62,-5.49,-77.40,-21.41,7.62
8.017506,0.4536,-0.9033,0.1992,6.04,-15.93,-6.23,-77.39,-21.60,7.93
8.078233,0.4614,-0.9038,0.2144,5.92,-15.38,-6.41,-77.38,-21.81,8.23
8.078233,0.4604,-0.9077,0.2246,6.10,-13.85,-6.47,-77.37,-22.00,8.50
8.107651,0.4478,-0.9136,0.2256,6.16,-14.47,-6.29,-77.34,-22.19,8.76
8.107651,0.4453,-0.9189,0.2222,6.53,-15.99,-5.62,-77.33,-22.38,9.05
8.138199,0.4492,-0.9106,0.2163,6.77,-16.24,-4.15,-77.32,-22.55,9.37
8.138199,0.4453,-0.9116,0.2080,6.90,-15.14,-2.20,-77.31,-22.69,9.68
8.198203,0.4282,-0.9116,0.2031,6.84,-14.95,-0.79,-77.29,-22.79,10.00
8.198203,0.4248,-0.9048,0.2119,6.10,-15.32,-0.24,-77.28,-22.87,10.32
8.227473,0.4370,-0.8882,0.2202,5.07,-15.44,0.00,-77.31,-22.95,10.65
8.227473,0.4575,-0.8726,0.2202,4.15,-13.85,0.31,-77.34,-23.02,10.96
8.258208,0.4668,-0.8770,0.2197,3.72,-10.56,0.73,-77.37,-23.07,11.23
8.258208,0.4614,-0.8789,0.2173,3.60,-7.75,1.16,-77.37,-23.09,11.43
8.318212,0.4458,-0.8735,0.2178,3.66,-7.14,1.59,-77.36,-23.09,11.59
8.318212,0.4390,-0.8560,0.2173,3.42,-6.96,1.77,-77.35,-23.09,11.75
8.347526,0.4341,-0.8501,0.2256,2.44,-5.55,1.40,-77.35,-23.09,11.89
8.347526,0.4341,-0.8667,0.2256,1.46,-5.98,1.83,-77.36,-23.09,12.02
8.378189,0.4487,-0.8726,0.2153,0.79,-7.20,3.54,-77.40,-23.07,12.17
8.378189,0.4463,-0.8804,0.2080,1.34,-8.18,5.13,-77.46,-23.02,12.35
8.438175,0.4473,-0.8823,0.2114,2.20,-8.18,6.29,-77.50,-22.94,12.55
8.438175,0.4580,-0.8779,0.2095,3.11,-6.16,7.39,-77.53,-22.85,12.73
8.467399,0.4590,-0.8735,0.2065,4.39,-3.36,8.67,-77.51,-22.71,12.86
8.467399,0.4478,-0.8647,0.2095,5.31,-1.83,10.07,-77.45,-22.54,12.96
8.498282,0.4385,-0.8643,0.2065,5.68,-2.20,10.86,-77.37,-22.34,13.05
8.498282,0.4424,-0.8652,0.2017,5.92,-3.11,11.47,-77.30,-22.14,13.15
8.558212,0.4468,-0.8745,0.1968,6.77,-4.58,11.96,-77.23,-21.93,13.28
8.558212,0.4448,-0.8584,0.1968,7.63,-5.25,12.63,-77.15,-21.71,13.45
8.587430,0.4370,-0.8574,0.2061,8.61,-4.52,12.70,-77.05,-21.49,13.61
8.587430,0.4326,-0.8608,0.2207,9.34,-2.38,12.45,-76.92,-21.26,13.74
8.618209,0.4336,-0.8564,0.2148,10.31,0.24,12.63,-76.76,-21.03,13.82
8.618209,0.4224,-0.8516,0.2100,12.15,2.87,13.18,-76.54,-20.77,13.85
8.678188,0.4111,-0.8438,0.2153,14.16,5.62,13.61,-76.27,-20.48,13.82
8.678188,0.4009,-0.8345,0.2310,15.32,7.57,13.98,-75.95,-20.18,13.75
8.710343,0.3979,-0.8311,0.2378,16.05,8.36,14.22,-75.61,-19.87,13.66
8.710343,0.3975,-0.8296,0.2280,17.09,9.46,14.65,-75.24,-19.54,13.55
8.737404,0.3994,-0.8115,0.2241,19.04,11.29,14.89,-74.84,-19.20,13.42
8.737404,0.3940,-0.7861,0.2300,21.48,14.59,14.95,-74.37,-18.84,13.24
8.798191,0.3804,-0.7817,0.2456,24.11,18.07,15.14,-73.83,-18.45,12.99
8.798191,0.3545,-0.7876,0.2656,26.25,19.59,15.08,-73.23,-18.05,12.69
8.827481,0.3364,-0.7744,0.2793,27.22,19.71,15.01,-72.60,-17.64,12.39
8.827481,0.3164,-0.4224,0.2822,22.34,17.52,19.17,-71.99,-17.20,12.11
8.858181,0.2812,-0.6367,0.2822,22.71,5.00,23.99,-71.56,-16.70,12.04
8.858181,0.2539,-0.8794,0.2661,31.68,-0.79,18.49,-71.04,-16.29,12.18
8.918036,0.2373,-0.9800,0.2617,36.13,4.64,13.06,-70.38,-16.00,12.24
8.918036,0.2520,-0.9199,0.2920,40.34,7.93,13.73,-69.60,-15.70,12.21
8.947434,0.2588,-0.7583,0.3125,46.14,12.51,16.78,-68.72,-15.35,12.13
8.947434,0.2500,-0.6479,0.3262,53.96,18.55,20.26,-67.68,-14.88,11.98
8.978575,0.2236,-0.6250,0.3643,60.91,23.32,22.95,-66.46,-14.31,11.74
8.978575,0.1821,-0.6538,0.4180,64.33,22.52,25.21,-65.14,-13.67,11.52
9.038209,0.1562,-0.7056,0.4644,67.26,20.14,25.63,-63.79,-13.02,11.37
9.038209,0.1201,-0.7930,0.4473,71.66,19.59,21.85,-62.37,-12.41,11.23
9.067809,0.0640,-0.9629,0.4375,75.13,19.90,14.95,-60.85,-11.90,11.06
9.067809,0.0303,-1.0776,0.4888,74.28,22.40,5.55,-59.30,-11.50,10.79
9.098201,0.0146,-0.9360,0.5405,72.57,21.48,-5.62,-57.74,-11.27,10.39
9.098201,0.0835,-0.6733,0.6040,70.74,18.68,-14.65,-56.22,-11.22,9.93
9.158169,0.1143,-0.5044,0.6138,70.74,20.63,-24.41,-54.69,-11.31,9.35
9.158169,0.0923,-0.4917,0.5942,72.14,19.04,-34.97,-53.11,-11.54,8.64
9.189964,0.0942,-0.5103,0.6025,73.97,14.89,-42.30,-51.48,-11.94,7.86
9.189964,0.0981,-0.5981,0.6201,75.99,12.63,-42.91,-49.80,-12.41,7.05
9.248288,0.1172,-0.8105,0.6572,70.68,8.97,-35.95,-48.15,-12.85,6.32
9.248288,0.2021,-0.9580,0.7114,59.45,10.07,-30.52,-46.70,-13.19,5.71
9.277481,0.2720,-0.9556,0.7231,48.34,7.45,-28.56,-45.49,-13.47,5.13
9.277481,0.3364,-0.7607,0.6030,40.34,5.49,-24.90,-44.51,-13.77,4.64
9.308431,0.2939,-0.6206,0.5039,41.08,7.26,-24.41,-43.58,-13.99,4.15
9.308431,0.2900,-0.5552,0.5952,40.77,1.59,-20.08,-42.65,-14.22,3.74
9.368154,0.2383,-0.5132,0.6924,42.97,-2.32,-14.53,-41.76,-14.46,3.47
9.368154,0.1978,-0.4854,0.7686,51.94,-1.28,-11.90,-40.75,-14.65,3.28
9.397566,0.1289,-0.4663,0.7876,55.79,-3.23,-13.85,-39.61,-14.84,3.09
9.397566,0.1074,-0.4609,0.8008,50.66,-11.60,-16.05,-38.50,-15.14,2.93
9.428279,0.1626,-0.5640,0.7832,44.37,-4.88,-24.54,-37.50,-15.54,2.70
9.428279,0.2100,-0.5669,0.7524,42.85,5.74,-34.18,-36.48,-15.87,2.17
9.488219,0.2500,-0.5400,0.7446,44.31,10.07,-40.95,-35.40,-16.17,1.40
9.488219,0.2588,-0.4927,0.8232,48.71,6.10,-43.70,-34.21,-16.47,0.54
9.517420,0.2622,-0.4336,0.8672,46.88,-10.86,-41.20,-33.01,-16.97,-0.20
9.517420,0.3330,-0.4473,0.9067,39.98,-18.25,-35.28,-31.99,-17.64,-0.73
9.548271,0.3623,-0.4800,0.9072,36.01,-17.76,-33.02,-31.10,-18.29,-1.16
9.548271,0.3599,-0.4795,0.8877,34.06,-18.31,-30.58,-30.27,-18.91,-1.58
9.608465,0.3936,-0.5186,0.8594,32.65,-14.71,-28.81,-29.47,-19.49,-1.98
9.608465,0.3745,-0.5298,0.8369,31.92,-15.01,-32.47,-28.67,-20.02,-2.43
9.637408,0.3110,-0.4668,0.8403,31.19,-26.67,-33.75,-27.87,-20.69,-2.89
9.637408,0.3467,-0.3848,0.9019,29.66,-41.38,-27.34,-27.17,-21.60,-3.16
9.668157,0.4429,-0.4014,0.9316,27.71,-45.96,-22.22,-26.57,-22.60,-3.24
9.668157,0.5117,-0.4727,0.8921,23.25,-41.44,-24.29,-26.04,-23.60,-3.30
9.728167,0.5044,-0.4663,0.8018,19.47,-30.15,-29.17,-25.52,-24.47,-3.53
9.728167,0.4702,-0.4043,0.7563,18.25,-30.15,-28.99,-25.00,-25.24,-3.89
9.757416,0.5249,-0.3657,0.7969,20.45,-34.24,-25.15,-24.50,-26.05,-4.17
9.757416,0.5581,-0.3813,0.8188,24.17,-34.61,-22.40,-23.96,-26.86,-4.38
9.788206,0.5444,-0.3550,0.7827,25.45,-41.44,-21.36,-23.40,-27.72,-4.53
9.788206,0.5654,-0.2964,0.7798,28.20,-43.64,-19.96,-22.83,-28.69,-4.61
9.848435,0.5674,-0.2007,0.7974,32.78,-38.51,-16.72,-22.19,-29.58,-4.69
9.848435,0.5913,-0.2349,0.8604,36.99,-35.89,-14.71,-21.47,-30.39,-4.74
9.877845,0.4966,-0.3716,0.8750,39.37,-39.25,-19.41,-20.65,-31.18,-4.84
9.877845,0.5288,-0.3940,0.9131,39.00,-40.59,-25.21,-19.76,-32.11,-5.06
9.920894,0.5356,-0.3174,0.9448,35.89,-43.46,-27.40,-18.84,-33.06,-5.38
9.920894,0.6211,-0.2397,0.9917,30.82,-34.12,-26.67,-17.98,-33.99,-5.75
9.968125,0.6538,-0.2085,0.9531,24.05,-23.19,-23.56,-17.20,-34.66,-6.17
9.968125,0.6909,-0.2529,0.8828,18.98,-16.54,-18.55,-16.57,-35.15,-6.56
9.997438,0.6841,-0.2754,0.8384,16.91,-18.49,-14.95,-16.05,-35.56,-6.87
9.997438,0.7275,-0.3135,0.8320,17.09,-16.24,-12.63,-15.58,-35.99,-7.11
10.028305,0.7139,-0.3149,0.7861,20.69,-7.02,-10.74,-15.08,-36.27,-7.34
10.028305,0.6875,-0.2466,0.8091,23.19,-0.92,-8.73,-14.50,-36.38,-7.58
10.088714,0.6582,-0.1875,0.8442,22.64,1.77,-6.35,-13.93,-36.40,-7.79
10.088714,0.5986,-0.1621,0.8442,21.55,4.82,-5.86,-13.39,-36.36,-7.97
10.117501,0.5747,-0.1396,0.8354,20.94,5.62,-6.77,-12.85,-36.28,-8.18
10.117501,0.6069,-0.1436,0.8110,21.67,9.46,-6.23,-12.31,-36.17,-8.39
10.148239,0.5547,-0.1313,0.8022,23.19,12.15,-6.90,-11.73,-35.96,-8.62
10.148239,0.5410,-0.0791,0.8359,22.09,8.30,-10.56,-11.12,-35.79,-8.91
10.208527,0.5981,-0.0601,0.8394,19.90,3.36,-13.18,-10.51,-35.71,-9.26
10.208527,0.6182,-0.0933,0.8018,19.90,-0.61,-12.57,-9.92,-35.73,-9.61
10.237468,0.6260,-0.1191,0.7573,20.75,-6.16,-11.78,-9.34,-35.84,-9.92
10.237468,0.6147,-0.1089,0.7583,22.28,-5.62,-10.38,-8.76,-35.99,-10.18
10.268165,0.5415,-0.0732,0.7563,20.94,-7.26,-11.23,-8.17,-36.13,-10.45
10.268165,0.5508,-0.0430,0.7720,20.14,-6.23,-12.63,-7.60,-36.32,-10.76
10.328288,0.5415,-0.0537,0.7954,18.98,-5.43,-13.79,-7.01,-36.45,-11.10
10.328288,0.5811,-0.0542,0.7944,19.96,-2.93,-13.73,-6.42,-36.56,-11.46
10.357415,0.6001,-0.0337,0.7944,21.55,-0.73,-12.08,-5.81,-36.62,-11.81
10.357415,0.5728,-0.0259,0.7651,23.25,-3.54,-10.68,-5.19,-36.66,-12.11
10.388612,0.5635,-0.0146,0.7681,23.44,-9.70,-11.47,-4.56,-36.82,-12.40
10.388612,0.5620,-0.0303,0.7725,21.85,-12.88,-13.00,-3.92,-37.06,-12.72
10.448340,0.5513,-0.0435,0.7559,18.62,-17.27,-15.93,-3.30,-37.36,-13.10
10.448340,0.5820,-0.0591,0.7603,15.50,-21.85,-18.49,-2.69,-37.77,-13.56
10.478663,0.5962,-0.0522,0.7856,12.45,-23.01,-18.68,-2.12,-38.24,-14.05
10.478663,0.5625,-0.0381,0.7896,11.05,-18.92,-19.84,-1.58,-38.66,-14.57
10.508433,0.5811,-0.0181,0.7920,9.89,-12.88,-21.06,-1.03,-38.97,-15.13
10.508433,0.6206,-0.0098,0.7866,7.87,-6.47,-20.51,-0.50,-39.17,-15.70
10.568187,0.6323,-0.0259,0.7891,5.74,0.06,-19.29,-0.03,-39.22,-16.25
10.568187,0.6475,-0.0259,0.8086,3.72,3.30,-18.62,0.38,-39.17,-16.78
10.597488,0.6895,-0.0605,0.8638,1.16,9.22,-15.69,0.71,-39.03,-17.24
10.597488,0.6113,-0.4673,0.8555,8.85,15.81,-9.58,0.97,-38.73,-17.58
10.658196,0.7305,-0.2612,0.9028,6.41,17.46,-3.97,1.25,-38.38,-17.76
10.658196,0.6362,-0.1284,0.7778,-2.14,6.65,-2.99,1.31,-38.12,-17.84
10.687451,0.5659,-0.1084,0.6455,1.59,-13.49,-6.29,1.36,-38.19,-18.00
10.687451,0.5283,-0.0410,0.6035,13.12,-40.89,-4.33,1.63,-38.73,-18.20
10.718206,0.7207,0.0103,0.7783,13.24,-71.78,10.74,1.93,-39.89,-18.25
10.718206,0.9028,0.1777,0.9131,13.18,-90.45,26.18,1.90,-41.58,-17.86
10.778818,0.9570,0.3799,0.9487,12.57,-89.17,27.47,1.75,-43.43,-17.28
10.778818,0.8623,0.4194,0.7949,6.35,-83.19,27.53,1.49,-45.16,-16.68
10.807732,0.7178,0.3789,0.6294,-0.92,-78.61,30.52,0.98,-46.81,-15.95
10.807732,0.7100,0.3540,0.5581,-2.20,-69.21,26.00,0.36,-48.32,-15.19
10.838205,0.9165,0.2026,0.6074,3.60,-35.28,16.66,-0.10,-49.42,-14.62
10.838205,0.8848,0.1353,0.5791,9.16,-1.71,17.64,-0.36,-49.73,-14.14
10.898294,0.8140,0.1118,0.5801,13.49,5.19,19.96,-0.59,-49.66,-13.57
10.898294,0.7354,0.0938,0.5864,15.87,-4.76,20.14,-0.78,-49.65,-12.96
10.942321,0.7305,0.0728,0.5806,16.36,-20.69,17.76,-0.92,-49.93,-12.39
10.942321,0.7856,0.0684,0.5908,18.43,-24.35,15.14,-0.95,-50.40,-11.92
10.958033,0.8423,0.0654,0.6221,20.32,-23.38,16.36,-0.95,-50.89,-11.45
10.958033,0.8525,0.1050,0.6260,22.22,-15.56,17.03,-0.94,-51.28,-10.94
11.018146,0.8608,0.1421,0.6450,21.97,-2.69,16.54,-0.93,-51.47,-10.42
11.018146,0.8193,0.1392,0.6514,19.90,7.14,16.54,-0.94,-51.41,-9.91
11.047493,0.7617,0.1299,0.6187,17.70,2.08,16.05,-0.98,-51.30,-9.40
11.047493,0.7573,0.1099,0.5913,17.52,-13.73,13.67,-1.02,-51.42,-8.95
11.079290,0.8057,0.0884,0.5786,19.84,-24.90,9.52,-0.94,-51.83,-8.60
11.079290,0.8628,0.0674,0.5840,22.58,-26.79,3.48,-0.67,-52.36,-8.43
11.138189,0.8726,0.0659,0.5815,23.62,-24.23,-1.77,-0.21,-52.88,-8.46
11.138189,0.8892,0.0806,0.6030,22.09,-21.06,-4.39,0.37,-53.33,-8.63
11.167401,0.8867,0.0405,0.5884,17.88,-13.18,-2.69,0.90,-53.67,-8.82
11.167401,0.8774,-0.0298,0.5757,13.61,-2.38,1.04,1.25,-53.83,-8.88
11.198278,0.8477,-0.0586,0.5483,8.73,9.22,6.23,1.36,-53.76,-8.78
11.198278,0.7827,-0.0415,0.5093,3.36,15.99,11.84,1.20,-53.50,-8.47
11.258206,0.7212,0.0024,0.4829,-0.73,14.16,14.77,0.83,-53.19,-8.01
11.258206,0.6909,0.0425,0.4653,-3.11,4.82,15.69,0.36,-53.01,-7.52
11.287402,0.6919,0.0693,0.4580,-2.93,-9.28,17.94,-0.19,-53.07,-6.95
11.287402,0.7886,0.0610,0.5337,3.66,-20.14,12.51,-0.59,-53.40,-6.48
11.318173,0.9214,0.0864,0.6318,5.55,-11.54,5.55,-0.71,-53.75,-6.22
11.318173,0.9492,0.0664,0.6792,3.91,5.68,4.39,-0.73,-53.81,-6.12
11.379671,0.8276,0.0444,0.6338,-1.53,31.86,13.92,-0.94,-53.43,-5.84
11.379671,0.7080,0.0410,0.5923,-11.90,45.84,27.04,-1.66,-52.62,-5.15
11.407715,0.6943,-0.0117,0.5952,-17.70,55.05,33.81,-2.77,-51.58,-4.18
11.407715,0.6724,-0.0352,0.5981,-20.81,49.50,38.82,-4.04,-50.49,-3.08
11.438216,0.6680,-0.0576,0.6147,-24.84,34.24,44.62,-5.46,-49.61,-1.87
11.438216,0.6699,-0.0674,0.6099,-30.15,18.86,50.66,-7.11,-49.02,-0.47
11.498259,0.7271,-0.0679,0.6235,-32.29,12.63,52.12,-8.91,-48.61,1.03
11.498259,0.7949,-0.0913,0.6504,-30.58,17.40,49.07,-10.67,-48.18,2.48
11.527442,0.7910,-0.1182,0.6572,-25.02,12.45,40.83,-12.16,-47.70,3.70
11.527442,0.7754,-0.0576,0.6167,-19.59,-3.78,32.59,-13.36,-47.48,4.71
11.558206,0.8345,-0.0767,0.6089,-12.76,-11.47,30.15,-14.44,-47.53,5.67
11.558206,0.8853,-0.0513,0.6440,-5.07,-2.01,28.69,-15.28,-47.53,6.54
11.618215,0.8921,-0.0679,0.7202,8.67,3.85,24.48,-15.80,-47.35,7.27
11.618215,0.8584,0.0254,0.7339,12.45,-2.26,21.30,-16.05,-47.22,7.89
11.647462,0.8936,0.0078,0.7461,11.96,-5.86,18.25,-16.25,-47.22,8.48
11.647462,0.8447,0.0195,0.7041,10.74,-4.39,16.30,-16.42,-47.24,8.98
11.679773,0.8193,0.0161,0.6953,7.69,-2.50,15.08,-16.58,-47.22,9.43
11.679773,0.7998,-0.0425,0.6982,5.62,-2.81,14.10,-16.78,-47.19,9.84
11.738609,0.7954,-0.1006,0.6787,6.71,-0.12,12.70,-16.96,-47.16,10.21
11.738609,0.7715,-0.1255,0.6777,8.48,4.64,9.58,-17.02,-47.05,10.49
11.767371,0.7656,-0.1289,0.6914,9.22,9.77,3.23,-16.94,-46.89,10.59
11.767371,0.7080,-0.1475,0.6431,10.38,16.97,2.87,-16.69,-46.61,10.51
11.798264,0.6382,-0.1860,0.6138,10.19,18.31,7.87,-16.50,-46.23,10.50
11.798264,0.6040,-0.2227,0.6558,9.03,14.89,9.46,-16.39,-45.86,10.60
11.858164,0.6050,-0.2407,0.7168,6.04,4.94,10.19,-16.38,-45.61,10.77
11.858164,0.6274,-0.2241,0.7334,3.72,-16.60,10.62,-16.53,-45.66,11.08
11.887409,0.6982,-0.1738,0.7310,3.72,-37.72,9.70,-16.82,-46.16,11.55
11.887409,0.7734,-0.1494,0.6924,4.21,-54.44,15.08,-17.26,-47.03,12.23
11.918202,0.8032,-0.1494,0.6543,4.21,-56.03,24.05,-17.96,-48.00,13.26
11.918202,0.7812,-0.1523,0.6064,2.26,-47.30,29.79,-18.84,-48.85,14.49
11.978061,0.7637,-0.1938,0.5850,-0.85,-34.73,32.17,-19.83,-49.42,15.77
11.978061,0.7373,-0.2388,0.5781,-3.30,-31.56,34.00,-20.87,-49.81,17.05
12.007309,0.7495,-0.2705,0.5640,-5.07,-40.16,37.48,-22.08,-50.24,18.47
12.007309,0.7715,-0.2964,0.5308,-4.82,-55.60,38.64,-23.51,-50.86,20.14
12.068233,0.7974,-0.3071,0.4868,-4.09,-76.29,39.49,-25.18,-51.77,22.12
12.068233,0.8643,-0.3125,0.4482,-3.85,-97.60,40.59,-27.21,-53.04,24.53
12.097557,0.8882,-0.2964,0.3911,-2.99,-111.15,40.95,-29.65,-54.55,27.40
12.097557,0.8984,-0.2744,0.3354,-1.71,-119.87,40.71,-32.46,-56.17,30.71
12.128215,0.9521,-0.2725,0.3081,1.22,-123.84,39.12,-35.63,-57.81,34.42
12.128215,0.9707,-0.2446,0.2798,5.31,-115.05,35.34,-38.97,-59.33,38.34
12.190588,0.9409,-0.2451,0.2563,10.01,-92.77,29.91,-42.06,-60.53,42.03
12.190588,0.8984,-0.2788,0.2778,9.46,-73.06,25.94,-44.64,-61.39,45.18
12.217557,0.8809,-0.3540,0.2964,4.82,-54.20,19.35,-46.83,-61.98,47.77
12.217557,0.8188,-0.3682,0.2861,-0.24,-31.92,7.75,-48.36,-62.38,49.50
12.248280,0.8545,-0.3291,0.2979,-2.69,-2.20,-1.83,-48.97,-62.58,50.11
12.248280,0.8877,-0.2871,0.3062,-4.94,32.10,-9.70,-48.38,-62.45,49.33
12.308453,0.8818,-0.2832,0.3018,-7.08,46.63,-10.56,-47.03,-62.03,47.65
12.308453,0.8267,-0.3169,0.2725,-6.59,42.85,-7.69,-45.69,-61.51,45.94
12.337390,0.7798,-0.3296,0.2935,-4.21,32.29,-6.84,-44.62,-61.07,44.58
12.337390,0.7466,-0.3149,0.3096,-1.95,17.27,-6.90,-43.86,-60.80,43.62
12.367451,0.7954,-0.3315,0.3428,-3.30,-3.36,-8.67,-43.56,-60.82,43.19
12.367451,0.8682,-0.3726,0.3286,-3.17,-10.07,-10.86,-43.57,-61.08,43.09
12.428200,0.9375,-0.3970,0.3311,1.59,2.20,-12.82,-43.38,-61.31,42.82
12.428200,0.9453,-0.4058,0.3423,4.39,14.77,-11.84,-42.69,-61.34,42.08
12.457837,0.8838,-0.4346,0.3452,1.89,0.12,-6.59,-42.13,-61.31,41.51
12.457837,0.8550,-0.4521,0.3154,-1.65,-29.79,-3.05,-42.39,-61.61,41.76
12.487425,0.8525,-0.4258,0.2646,-4.94,-54.02,-2.26,-43.52,-62.30,42.92
12.487425,0.8608,-0.3628,0.2202,-7.39,-62.68,-6.41,-45.16,-63.24,44.59
12.548294,0.9897,-0.3267,0.2681,-10.19,-50.66,-6.04,-46.86,-64.18,46.24
12.548294,1.2051,-0.3550,0.3496,-12.63,-10.13,-0.12,-47.99,-64.67,47.19
12.577413,1.2241,-0.3188,0.3735,-14.10,40.59,2.26,-47.76,-64.41,46.61
12.577413,1.0571,-0.2334,0.3525,-18.49,65.86,4.15,-46.46,-63.57,44.79
12.608434,0.9854,-0.2271,0.3818,-23.62,74.71,5.49,-45.02,-62.48,42.69
12.608434,0.8823,-0.2402,0.3994,-27.47,73.49,3.91,-43.70,-61.32,40.58
12.668201,0.7979,-0.2520,0.4067,-30.40,60.85,2.87,-42.70,-60.27,38.76
12.668201,0.7803,-0.2729,0.4121,-31.74,39.43,5.86,-42.28,-59.46,37.52
12.697545,0.7754,-0.2646,0.4014,-30.03,14.28,10.62,-42.52,-58.96,37.06
12.697545,0.7568,-0.2729,0.3960,-27.16,-14.28,16.11,-43.45,-58.79,37.45
12.728128,0.7402,-0.2993,0.3848,-26.31,-43.64,19.10,-45.14,-58.99,38.76
12.728128,0.7285,-0.3574,0.3345,-23.44,-71.29,16.66,-47.52,-59.56,40.90
12.788198,0.7598,-0.3828,0.2603,-15.62,-98.75,17.03,-50.61,-60.49,43.96
12.788198,0.8013,-0.3359,0.1958,-2.20,-106.51,16.66,-54.23,-61.55,47.83
12.817584,0.8223,-0.3027,0.1396,12.57,-95.89,13.31,-57.69,-62.49,51.83
12.817584,0.8057,-0.2271,0.1328,22.28,-67.44,8.18,-60.35,-63.19,55.18
12.848228,0.8115,-0.2524,0.1440,24.96,-32.35,2.20,-61.73,-63.60,57.21
12.848228,0.9224,-0.4067,0.1938,23.74,1.83,-2.69,-61.72,-63.74,57.73
12.908485,0.9268,-0.5000,0.1860,21.48,26.12,-5.86,-60.63,-63.67,56.98
12.908485,0.8301,-0.4907,0.1450,22.03,41.14,-14.47,-58.74,-63.47,55.33
12.937340,0.7437,-0.4009,0.1636,20.08,43.03,-24.54,-56.37,-63.32,53.14
12.937340,0.7822,-0.4336,0.1963,15.75,31.37,-28.93,-54.09,-63.31,50.98
12.978632,0.8618,-0.4756,0.2095,12.70,15.14,-28.81,-52.33,-63.50,49.30
12.978632,0.8691,-0.4512,0.1772,11.29,0.00,-23.93,-51.15,-63.81,48.22
13.027966,0.8740,-0.4097,0.1250,10.13,-20.08,-19.84,-50.69,-64.28,47.92
13.027966,0.9326,-0.4302,0.1182,7.81,-40.53,-15.32,-51.03,-64.95,48.46
13.057430,0.9360,-0.4575,0.1118,0.85,-65.67,-9.83,-52.45,-65.82,50.09
13.057430,0.8745,-0.3813,0.0874,-8.18,-87.28,-9.52,-55.22,-66.92,52.97
13.088210,0.8467,-0.2593,0.0967,-12.33,-87.04,-11.72,-58.86,-68.12,56.62
13.088210,0.9062,-0.2271,0.1431,-11.41,-55.18,-12.02,-62.09,-69.08,59.77
13.148174,0.9707,-0.2344,0.1699,-9.46,-7.14,-11.78,-63.47,-69.58,60.99
13.148174,1.0640,-0.2344,0.2495,-10.56,43.95,-12.15,-62.34,-69.60,59.56
13.177396,1.0952,-0.2129,0.2651,-19.65,88.62,-9.40,-59.08,-69.08,55.74
13.177396,0.8940,-0.1826,0.2510,-31.19,121.58,-13.67,-54.60,-68.04,50.36
13.207689,0.7661,-0.2026,0.2334,-35.10,129.52,-23.68,-49.78,-66.72,44.41
13.207689,0.7065,-0.2334,0.2344,-29.85,124.63,-31.98,-45.20,-65.35,38.68
13.267467,0.6602,-0.2524,0.2778,-21.12,105.71,-33.26,-41.24,-64.07,33.75
13.267467,0.6689,-0.2656,0.3599,-15.26,78.12,-33.94,-38.16,-63.05,29.90
13.298413,0.6714,-0.2671,0.3999,-13.12,47.97,-34.00,-35.86,-62.43,26.99
13.298413,0.6851,-0.2607,0.4062,-13.00,11.23,-31.19,-34.41,-62.31,25.05
13.327410,0.7729,-0.2964,0.4141,-12.45,-24.11,-26.55,-33.88,-62.76,24.13
13.327410,0.8828,-0.3271,0.4053,-10.86,-45.96,-20.14,-34.13,-63.64,24.13
13.388210,0.9546,-0.3262,0.3818,-7.57,-55.85,-12.57,-34.95,-64.69,24.79
13.388210,0.9082,-0.3218,0.3052,-4.21,-68.36,-8.24,-36.28,-65.83,26.09
13.417497,0.8735,-0.3579,0.2549,-1.65,-79.10,-5.98,-38.13,-67.12,28.00
13.417497,0.8584,-0.3530,0.2153,-0.73,-88.20,-3.30,-40.63,-68.51,30.64
13.478172,0.7954,-0.3369,0.1426,1.71,-91.55,-0.49,-43.80,-69.90,33.98
13.478172,0.8076,-0.2710,0.1504,4.27,-90.82,-0.31,-47.52,-71.21,37.94
13.507742,0.8442,-0.2402,0.1514,5.07,-87.89,-2.69,-51.61,-72.43,42.30
13.507742,0.8853,-0.2319,0.1460,6.29,-84.84,-7.57,-56.00,-73.57,46.96
13.540036,0.9019,-0.2241,0.1313,7.87,-78.00,-11.84,-60.52,-74.63,51.75
13.540036,0.9648,-0.1289,0.1299,10.44,-62.99,-17.76,-64.76,-75.57,56.28
13.598515,0.9678,0.0454,0.1133,8.18,-49.56,-23.19,-68.02,-76.42,59.80
13.598515,0.9136,0.1479,0.0864,1.10,-52.19,-29.11,-71.33,-77.27,63.24
13.627440,0.8887,0.1152,0.0093,-2.81,-56.27,-35.95,-75.42,-78.23,67.35
13.627440,0.9756,0.0464,0.0249,-5.37,-62.26,-35.40,-80.90,-79.22,72.81
13.658259,0.9575,0.0312,-0.0889,-4.33,-63.11,-34.30,-87.98,-80.06,79.84
13.658259,1.0054,0.0806,-0.1055,2.20,-53.83,-38.94,-95.60,-80.78,87.51
13.718250,1.0742,0.1118,-0.0410,0.00,-53.96,-38.64,-103.71,-81.42,95.70
13.718250,1.1025,0.0361,-0.0010,-8.97,-57.13,-32.59,-113.44,-81.76,105.38
13.748617,1.0806,-0.1074,-0.0718,-12.57,-49.62,-33.45,-123.34,-81.86,115.09
13.748617,1.1318,-0.0645,-0.1133,-9.46,-41.20,-32.78,-132.35,-81.86,123.92
13.778229,1.1094,0.0000,-0.0757,-11.41,-25.76,-31.49,-139.70,-81.85,131.09
13.778229,1.1509,0.0342,-0.0762,-16.54,-13.43,-31.13,-145.62,-81.94,136.75
13.838248,1.1772,-0.0278,-0.1426,-16.05,-11.84,-33.14,-151.28,-82.08,142.09
13.838248,1.2295,-0.0093,-0.1353,-13.37,-11.84,-36.62,-157.47,-82.19,147.99
13.867574,1.2729,0.0522,-0.1353,-13.00,-9.70,-40.22,-164.28,-82.25,154.56
13.867574,1.2168,0.0254,-0.1807,-14.77,-13.67,-41.26,-171.54,-82.23,161.56
13.898762,1.1909,0.0122,-0.1851,-12.70,-12.02,-38.70,-178.48,-82.03,168.24
13.898762,1.0498,-0.0537,-0.0923,-6.65,0.31,-31.92,175.48,-81.92,174.08
13.958233,0.9448,-0.1177,-0.0913,16.97,-1.89,14.53,175.01,-81.89,174.68
13.958233,1.1353,0.0469,-0.1709,8.48,1.10,0.61,176.78,-81.89,173.16
14.003076,1.1113,-0.0586,-0.1353,2.14,0.98,1.71,176.63,-81.90,173.35
14.003076,1.1587,0.0630,-0.1421,-1.77,-0.92,3.85,177.25,-81.91,172.69
14.017911,1.1479,0.0630,-0.2275,-3.48,-6.71,3.23,177.69,-81.83,172.16
14.017911,1.2266,0.0703,-0.2168,0.98,-7.02,5.62,178.36,-81.67,171.43
14.078157,1.2363,0.0542,-0.1743,5.13,-1.22,5.68,179.32,-81.59,170.50
14.078157,1.1675,0.0391,-0.1577,5.25,0.00,3.42,-179.92,-81.58,169.81
14.107686,1.1987,0.0171,-0.1353,4.64,-3.78,3.05,-179.36,-81.54,169.32
14.107686,1.2559,0.0176,-0.1499,3.91,-2.87,5.68,-178.71,-81.46,168.73
14.138195,1.2144,0.0278,-0.2056,0.61,-0.24,10.93,-177.44,-81.41,167.45
14.138195,1.1455,0.0308,-0.2222,0.49,0.61,12.76,-175.66,-81.41,165.64
14.199814,1.1235,0.0269,-0.1714,1.83,-4.39,12.94,-173.81,-81.34,163.77
14.199814,1.0928,0.0327,-0.1504,1.59,-9.58,13.12,-172.09,-81.15,162.04
14.228679,1.0430,0.0059,-0.1724,2.50,-11.72,10.31,-170.71,-80.89,160.66
14.228679,1.1235,-0.0166,-0.1904,4.88,-9.77,10.13,-169.65,-80.63,159.63
14.257431,1.1929,-0.0166,-0.1758,6.41,-7.87,17.33,-168.07,-80.40,158.13
14.257431,1.1523,-0.0215,-0.1440,5.55,-8.18,28.20,-165.38,-80.13,155.50
14.318293,1.0786,-0.0239,-0.1221,4.33,-9.34,38.64,-161.67,-79.75,151.82
14.318293,1.0757,-0.0474,-0.1323,3.78,-9.40,47.91,-157.29,-79.25,147.43
14.347417,1.0923,-0.0464,-0.1396,4.88,-8.36,48.83,-152.77,-78.64,142.90
14.347417,1.1094,-0.0698,-0.1387,6.04,-5.07,43.95,-148.86,-78.05,139.01
14.378182,1.1187,-0.0728,-0.1514,6.53,-5.19,39.55,-145.63,-77.51,135.81
14.378182,1.1064,-0.0850,-0.1743,7.02,-6.84,37.90,-142.94,-76.94,133.18
14.438274,1.0566,-0.1084,-0.2007,7.93,-7.20,33.87,-140.70,-76.38,131.01
14.438274,1.0195,-0.0864,-0.2051,9.03,-13.79,29.36,-139.12,-75.81,129.54
14.467355,1.0405,-0.0850,-0.2090,9.34,-23.38,28.81,-138.28,-75.14,128.85
14.467355,1.0688,-0.1313,-0.2178,9.95,-26.25,30.94,-137.77,-74.36,128.50
14.499339,1.0239,-0.1597,-0.2129,9.77,-28.69,30.76,-137.34,-73.53,128.23
14.499339,1.0229,-0.2251,-0.2720,9.89,-35.16,32.23,-137.13,-72.64,128.19
14.558219,1.0171,-0.2524,-0.2915,14.71,-44.43,35.89,-137.14,-71.58,128.43
14.558219,0.9902,-0.2778,-0.2646,18.62,-46.02,36.68,-137.17,-70.41,128.80
14.587436,0.9204,-0.2910,-0.2368,21.00,-40.34,34.67,-137.05,-69.29,129.08
14.587436,0.8149,-0.2593,-0.2329,21.91,-33.02,32.84,-136.71,-68.30,129.15
14.618293,0.7925,-0.2642,-0.2729,26.00,-28.08,31.37,-136.18,-67.41,129.06
14.618293,0.7837,-0.2754,-0.2754,29.48,-26.06,29.72,-135.51,-66.60,128.92
14.678216,0.7451,-0.3032,-0.2603,28.75,-28.14,26.98,-134.91,-65.82,128.89
14.678216,0.6543,-0.2808,-0.2246,25.27,-31.80,22.03,-134.61,-65.04,129.12
14.707740,0.5591,-0.2637,-0.1719,18.98,-32.90,16.36,-134.64,-64.32,129.62
14.707740,0.4883,-0.2461,-0.1826,14.71,-35.28,13.00,-134.95,-63.64,130.29
14.768239,0.4243,-0.2246,-0.1992,12.45,-39.67,9.03,-135.48,-62.96,131.16
14.768239,0.4092,-0.2158,-0.1948,10.38,-41.99,4.27,-136.26,-62.29,132.24
14.797427,0.4214,-0.2021,-0.1694,7.63,-39.37,-1.22,-137.16,-61.68,133.44
14.797427,0.4121,-0.2007,-0.1719,2.87,-32.96,-8.67,-138.15,-61.23,134.64
14.828153,0.4023,-0.2192,-0.1914,-3.11,-31.43,-15.87,-139.32,-60.94,135.92
14.828153,0.4639,-0.2627,-0.2222,-7.87,-32.96,-19.41,-140.73,-60.69,137.35
14.888154,0.5454,-0.3135,-0.2568,-9.89,-31.49,-20.81,-142.25,-60.45,138.84
14.888154,0.5947,-0.3154,-0.2720,-11.17,-25.82,-22.09,-143.73,-60.27,140.25
14.917412,0.6094,-0.2900,-0.2788,-13.67,-20.94,-21.30,-145.11,-60.17,141.50
14.917412,0.6040,-0.2817,-0.2944,-17.33,-21.79,-20.14,-146.46,-60.06,142.66
14.949842,0.5889,-0.2822,-0.3267,-20.87,-29.72,-19.96,-147.95,-59.86,143.88
14.949842,0.6240,-0.2583,-0.3379,-23.13,-36.32,-20.32,-149.64,-59.51,145.28
15.008642,0.7090,-0.2529,-0.3647,-24.23,-35.52,-19.41,-151.36,-59.08,146.68
15.008642,0.8521,-0.2339,-0.4429,-25.21,-28.69,-17.09,-152.95,-58.70,147.90
15.053537,0.9170,-0.1733,-0.5200,-25.15,-21.73,-15.26,-154.32,-58.40,148.87
15.053537,0.9556,-0.1680,-0.4907,-25.94,-8.42,-18.13,-155.56,-58.26,149.68
15.067884,0.9097,-0.2104,-0.4907,-28.99,11.05,-24.60,-156.71,-58.49,150.36
15.067884,0.9077,-0.2349,-0.5845,-35.52,6.84,-30.94,-158.09,-58.91,151.16
15.128180,0.9971,-0.1392,-0.5435,-42.97,0.43,-35.71,-159.92,-59.20,152.32
15.128180,0.9683,-0.0347,-0.5015,-48.89,9.09,-44.49,-162.10,-59.57,153.73
15.157414,0.8521,0.0117,-0.5015,-55.18,11.05,-56.46,-164.75,-60.11,155.53
15.157414,0.7632,0.0405,-0.5176,-59.69,-7.14,-64.82,-168.01,-60.49,157.91
15.190447,0.6543,-0.1299,-0.3628,-40.22,-33.14,-44.07,-171.55,-60.30,160.60
15.190447,1.1572,-0.1191,-0.5991,23.13,-37.72,23.68,-171.67,-59.51,160.76
15.248207,1.3115,-0.0938,-0.6743,15.50,-7.81,10.93,-170.78,-59.00,160.16
15.248207,1.1558,-0.3052,-0.6284,28.26,4.15,20.69,-169.95,-58.97,159.63
15.277525,1.1528,-0.2686,-0.6562,38.45,3.97,35.83,-168.19,-58.91,158.37
15.277525,1.1528,-0.1641,-0.6201,42.18,6.96,39.06,-166.09,-58.83,156.84
15.307939,0.6899,0.2627,-0.2661,39.12,13.37,31.37,-163.87,-58.80,155.24
15.307939,0.3242,0.3682,-0.1357,-2.32,5.74,-11.72,-163.17,-58.97,154.79
15.368106,1.1182,-0.1992,-0.7349,-17.27,-10.99,-17.03,-164.05,-59.01,155.46
15.368106,1.4600,-0.3779,-0.8760,-1.22,-12.27,0.73,-164.66,-58.79,155.90
15.397434,1.1328,-0.2129,-0.5493,12.15,-1.71,5.92,-164.41,-58.66,155.74
15.397434,0.9717,-0.0977,-0.5195,7.02,-10.07,1.46,-164.14,-58.52,155.63
15.428212,1.1680,-0.1953,-0.6958,7.26,-11.29,1.83,-164.11,-58.28,155.71
15.428212,1.2153,-0.2007,-0.6431,12.08,-4.09,4.46,-163.86,-58.12,155.63
15.488202,1.1460,-0.1626,-0.6494,10.38,-4.27,5.25,-163.53,-58.02,155.48
15.488202,1.1045,-0.1636,-0.6743,8.00,-0.73,9.16,-163.15,-57.93,155.22
15.518579,1.1118,-0.1641,-0.7036,9.70,4.15,15.26,-162.58,-57.88,154.73
15.518579,1.0605,-0.1826,-0.6807,12.70,6.65,18.13,-161.75,-57.88,154.00
15.547754,1.0020,-0.2129,-0.5938,10.80,0.06,18.31,-160.91,-57.82,153.26
15.547754,1.0054,-0.2261,-0.5752,10.25,-9.03,18.25,-160.21,-57.58,152.66
15.608420,1.0283,-0.1670,-0.6216,15.62,-8.06,18.13,-159.52,-57.28,152.12
15.608420,0.9688,-0.1172,-0.6138,19.71,0.00,15.87,-158.70,-57.07,151.56
15.637494,0.8545,-0.1064,-0.5156,17.58,7.26,10.62,-157.87,-57.04,151.01
15.637494,0.7930,-0.1411,-0.4541,11.90,11.84,2.20,-157.27,-57.17,150.62
15.668188,0.7632,-0.1519,-0.4399,8.00,10.25,-9.28,-157.03,-57.40,150.53
15.668188,0.7207,-0.1250,-0.4287,1.71,-0.98,-24.66,-157.37,-57.64,151.03
15.728222,0.7666,-0.1060,-0.4204,-7.87,-14.95,-41.63,-158.56,-57.74,152.33
15.728222,0.8730,-0.1372,-0.4741,-17.46,-24.41,-58.59,-160.61,-57.75,154.40
15.757427,1.0547,-0.2012,-0.6138,-17.27,-35.83,-56.64,-163.12,-57.58,156.89
15.757427,1.3911,-0.3159,-0.7983,3.54,-59.39,-14.04,-164.93,-56.91,158.79
15.788212,1.0420,-0.2109,-0.6411,31.80,-76.23,38.82,-164.59,-55.43,158.85
15.788212,0.7944,-0.1636,-0.5952,41.32,-69.70,37.78,-163.36,-53.80,158.24
15.848228,0.7993,-0.1719,-0.6133,40.28,-67.08,30.27,-162.25,-52.29,157.88
15.848228,0.8433,-0.1846,-0.6387,35.64,-66.22,25.82,-161.41,-50.84,157.74
15.877506,0.8491,-0.1934,-0.6704,32.59,-65.55,24.35,-160.71,-49.44,157.70
15.877506,0.7676,-0.2095,-0.7085,25.51,-65.61,20.57,-160.19,-48.05,157.75
15.908477,0.6699,-0.1934,-0.7363,21.06,-71.66,17.33,-159.91,-46.64,157.96
15.908477,0.6372,-0.1909,-0.7148,21.85,-79.16,16.17,-159.76,-45.10,158.31
15.968299,0.6602,-0.2085,-0.6958,24.11,-75.01,15.01,-159.59,-43.53,158.70
15.968299,0.7163,-0.2627,-0.6875,26.37,-58.84,15.62,-159.30,-42.17,158.98
15.997439,0.7212,-0.3018,-0.6245,26.79,-30.88,14.04,-158.82,-41.22,159.04
15.997439,0.6660,-0.3125,-0.5903,25.21,-1.83,15.38,-158.16,-40.83,158.81
16.028207,0.5396,-0.3145,-0.6099,25.33,12.45,16.54,-157.36,-40.84,158.32
16.028207,0.4805,-0.3096,-0.6055,27.71,8.48,18.37,-156.46,-40.89,157.74
16.088091,0.4839,-0.2920,-0.5103,29.54,7.02,19.17,-155.52,-40.85,157.18
16.088091,0.4033,-0.2427,-0.4209,25.15,11.90,13.06,-154.63,-40.87,156.64
16.117230,0.2417,-0.1587,-0.3228,16.78,7.87,5.49,-153.98,-40.98,156.26
16.117230,0.1797,-0.0996,-0.2500,8.30,-4.70,-1.71,-153.70,-40.98,156.18
16.147997,0.2090,-0.1836,-0.2480,-0.92,-18.13,-8.30,-153.83,-40.83,156.43
16.147997,0.4062,-0.3135,-0.3486,-6.35,-21.48,-9.22,-154.23,-40.52,156.88
16.208450,0.5591,-0.4253,-0.4272,-5.25,-14.47,-4.52,-154.61,-40.26,157.24
16.208450,0.4849,-0.3550,-0.3774,-5.68,-4.09,-2.62,-154.82,-40.13,157.37
16.237524,0.3760,-0.3154,-0.3936,-10.93,-2.93,-7.93,-155.09,-40.13,157.48
16.237524,0.3413,-0.3164,-0.4370,-17.46,-17.52,-13.92,-155.63,-40.06,157.83
16.298212,0.3940,-0.3130,-0.4478,-23.25,-35.95,-16.05,-156.49,-39.68,158.47
16.298212,0.4570,-0.3174,-0.4756,-25.82,-47.00,-14.89,-157.52,-39.03,159.27
16.327424,0.4468,-0.3125,-0.5166,-25.39,-53.47,-13.49,-158.58,-38.22,160.08
16.327424,0.3999,-0.3091,-0.5688,-25.88,-62.01,-14.65,-159.65,-37.25,160.93
16.358204,0.4189,-0.3120,-0.6255,-27.53,-73.97,-15.87,-160.78,-36.08,161.88
16.358204,0.5356,-0.3101,-0.6826,-29.54,-76.42,-13.79,-161.95,-34.74,162.84
16.418232,0.5889,-0.2803,-0.7236,-32.29,-63.78,-9.70,-163.04,-33.48,163.62
16.418232,0.5430,-0.2544,-0.7764,-34.73,-48.58,-7.51,-164.05,-32.48,164.19
16.447426,0.5913,-0.2065,-0.8140,-37.60,-31.92,-7.14,-165.02,-31.74,164.59
16.447426,0.6816,-0.1396,-0.7891,-40.71,2.08,-6.90,-165.94,-31.49,164.81
16.478196,0.6216,-0.1260,-0.8252,-43.70,36.32,-7.45,-166.81,-31.93,164.80
16.478196,0.5088,-0.1279,-0.8950,-44.68,43.76,-9.03,-167.66,-32.81,164.70
16.538331,0.5151,-0.1567,-0.9482,-46.81,30.46,-9.83,-168.58,-33.57,164.67
16.538331,0.5513,-0.1685,-0.9604,-50.42,16.42,-11.41,-169.63,-34.06,164.77
16.568348,0.6299,-0.1436,-0.9292,-53.10,9.77,-13.67,-170.81,-34.35,164.98
16.568348,0.6265,-0.2300,-0.8286,-34.61,3.97,-12.15,-171.97,-34.58,165.24
16.598191,0.8120,-0.3789,-0.9438,40.89,-16.24,4.58,-171.89,-34.37,165.34
16.598191,0.8564,-0.3384,-1.0898,58.90,-0.79,15.38,-170.67,-34.16,165.07
16.658240,0.7163,-0.2212,-0.9810,56.70,6.71,19.17,-169.26,-34.17,164.59
16.658240,0.6714,-0.1411,-0.8657,53.83,13.18,21.91,-167.84,-34.26,164.01
16.687435,0.6045,-0.0913,-0.8013,49.26,25.82,21.36,-166.43,-34.54,163.33
16.687435,0.5063,-0.0640,-0.7759,37.54,22.03,18.01,-165.19,-34.92,162.65
16.718272,0.5010,-0.0278,-0.7739,28.32,8.73,11.23,-164.28,-35.11,162.17
16.718272,0.5332,-0.0537,-0.7827,23.13,8.00,3.48,-163.64,-35.20,161.91
16.778198,0.5625,-0.1606,-0.8354,14.83,13.06,-6.65,-163.23,-35.41,161.83
16.778198,0.6621,-0.2480,-0.9028,9.34,9.95,-14.77,-163.11,-35.72,161.98
16.807777,0.7803,-0.2803,-0.7915,6.90,3.78,-13.92,-163.11,-35.96,162.24
16.807777,0.8481,-0.2539,-0.8462,-12.63,-2.62,-4.82,-163.34,-35.94,162.44
16.868576,0.7061,-0.3262,-1.0684,-5.80,8.73,-0.12,-163.55,-36.05,162.43
16.868576,0.6240,-0.3467,-1.0342,-5.55,0.73,4.76,-163.60,-36.13,162.30
16.897438,0.7534,-0.3701,-1.0356,0.18,-4.94,8.24,-163.58,-36.03,162.13
16.897438,0.8052,-0.3447,-1.0020,3.85,-4.82,9.89,-163.42,-35.87,161.91
16.928198,0.8247,-0.3267,-0.9917,7.51,0.67,7.81,-163.19,-35.77,161.69
16.928198,0.7529,-0.3228,-1.0015,9.64,4.46,5.37,-162.91,-35.79,161.48
16.957403,0.6841,-0.2969,-0.9727,9.52,0.55,5.19,-162.63,-35.80,161.31
16.957403,0.6812,-0.2383,-0.9243,8.00,-3.36,6.16,-162.37,-35.73,161.16
17.018757,0.6240,-0.2690,-0.8550,0.79,-0.61,4.21,-162.21,-35.66,161.02
17.018757,0.5986,-0.2783,-0.8491,-7.02,-3.54,0.18,-162.26,-35.61,160.96
17.047473,0.6416,-0.2559,-0.8730,-9.58,-8.06,-4.21,-162.50,-35.50,161.03
17.047473,0.6357,-0.2388,-0.9023,-9.70,-9.22,-6.90,-162.82,-35.37,161.22
17.093323,0.5996,-0.2212,-0.9238,-12.21,-13.37,-6.41,-163.19,-35.20,161.44
17.093323,0.6392,-0.1958,-0.8716,-13.55,-13.85,-5.55,-163.60,-34.95,161.67
17.138245,0.6299,-0.1538,-0.7812,-12.70,-7.63,-7.26,-163.99,-34.79,161.87
17.138245,0.6089,-0.1216,-0.7358,-13.73,1.10,-10.68,-164.39,-34.78,162.08
17.168117,0.5889,-0.1606,-0.8071,-15.20,-0.06,-13.61,-164.85,-34.88,162.34
17.168117,0.6084,-0.1987,-0.8667,-15.50,-11.11,-15.93,-165.39,-34.85,162.71
17.198223,0.6357,-0.2090,-0.8672,-14.59,-19.47,-16.24,-165.98,-34.63,163.17
17.198223,0.6138,-0.2124,-0.8721,-13.73,-26.98,-15.26,-166.56,-34.27,163.67
17.258179,0.6436,-0.2388,-0.9556,-11.47,-34.24,-14.22,-167.14,-33.73,164.20
17.258179,0.8481,-0.4062,-1.1973,18.31,-37.11,5.19,-167.29,-33.06,164.53
17.287475,0.7134,-0.2974,-0.9893,49.68,-33.26,28.14,-166.44,-32.27,164.29
17.287475,0.5957,-0.1890,-0.8955,47.85,-17.33,23.93,-165.17,-31.62,163.80
17.318971,0.5269,-0.1650,-0.8340,37.66,-5.07,17.88,-164.12,-31.32,163.39
17.318971,0.5366,-0.1812,-0.8311,29.48,2.75,16.05,-163.27,-31.20,163.00
17.378145,0.5552,-0.2007,-0.8286,26.25,12.21,11.96,-162.53,-31.25,162.61
17.378145,0.5513,-0.1987,-0.8022,25.45,24.66,9.03,-161.81,-31.53,162.22
17.407723,0.5200,-0.1748,-0.7480,21.97,36.19,6.96,-161.10,-32.05,161.77
17.407723,0.4219,-0.2173,-0.6289,12.94,38.27,4.15,-160.50,-32.73,161.30
17.438225,0.5889,-0.4604,-0.7817,12.94,29.72,8.42,-160.05,-33.31,160.86
17.438225,0.5859,-0.4092,-0.7949,23.80,27.95,14.04,-159.37,-33.76,160.32
17.498208,0.3618,-0.2656,-0.6099,25.57,17.64,13.49,-158.56,-34.09,159.76
17.498208,0.2817,-0.2769,-0.5640,21.73,-11.11,12.76,-157.90,-34.03,159.41
17.527422,0.2891,-0.2671,-0.5034,19.84,-34.24,10.19,-157.49,-33.49,159.37
17.527422,0.2935,-0.2451,-0.4570,18.43,-44.37,8.12,-157.21,-32.67,159.55
17.558213,0.3027,-0.2358,-0.4390,16.05,-46.88,5.74,-157.04,-31.76,159.83
17.558213,0.3179,-0.2549,-0.4326,12.08,-39.55,2.14,-156.94,-30.93,160.15
17.619328,0.3398,-0.2998,-0.4395,8.48,-30.40,0.37,-156.90,-30.29,160.43
17.619328,0.2896,-0.3208,-0.4316,4.21,-25.33,-0.79,-156.91,-29.79,160.67
17.647415,0.2480,-0.3198,-0.4067,-2.75,-27.65,-3.48,-157.04,-29.33,160.93
17.647415,0.2578,-0.3169,-0.3867,-11.60,-28.93,-5.86,-157.38,-28.84,161.27
17.708454,0.2925,-0.3252,-0.4170,-18.62,-27.04,-7.26,-157.90,-28.38,161.64
17.708454,0.3218,-0.3389,-0.4780,-23.50,-23.25,-7.45,-158.51,-27.98,161.99
17.737462,0.3228,-0.3345,-0.5396,-27.71,-22.09,-7.32,-159.19,-27.62,162.30
17.737462,0.3062,-0.3364,-0.5977,-30.52,-23.80,-8.48,-159.94,-27.25,162.62
17.769381,0.3242,-0.3135,-0.6279,-31.68,-24.35,-10.07,-160.75,-26.86,162.98
17.769381,0.3394,-0.2837,-0.6396,-34.91,-21.73,-11.60,-161.60,-26.49,163.36
17.828194,0.3442,-0.2769,-0.7280,-37.41,-18.19,-12.82,-162.52,-26.20,163.72
17.828194,0.3340,-0.2026,-0.7544,-40.10,-15.62,-15.69,-163.48,-25.96,164.10
17.857523,0.3228,-0.1582,-0.7036,-47.18,-7.26,-22.09,-164.57,-25.85,164.54
17.857523,0.3926,-0.2158,-0.7471,-54.75,4.76,-28.81,-165.86,-25.97,165.06
17.888275,0.4985,-0.2812,-0.9844,-57.25,13.61,-30.40,-167.26,-26.32,165.62
17.888275,0.6426,-0.2603,-1.1880,-51.21,17.03,-25.88,-168.60,-26.75,166.12
17.948166,0.7646,-0.1924,-1.1655,-40.53,36.50,-18.80,-169.68,-27.34,166.45
17.948166,0.6030,-0.1934,-1.0811,-29.48,53.04,-10.50,-170.43,-28.34,166.53
17.980117,0.4180,-0.1895,-0.9312,-20.87,31.43,-0.37,-170.88,-29.22,166.42
17.980117,0.4453,-0.2188,-0.7246,-11.05,6.65,8.48,-171.13,-29.55,166.20
18.008748,0.6006,-0.3198,-0.7090,33.69,-27.04,11.90,-170.81,-29.26,165.98
18.008748,0.8115,-0.2700,-0.8965,62.38,-0.06,16.30,-169.66,-28.84,165.71
18.069644,0.5815,-0.2412,-1.0244,61.22,31.01,25.88,-168.09,-29.17,165.09
18.069644,0.4307,-0.2158,-0.9731,41.81,14.04,28.32,-166.65,-29.49,164.28
18.113991,0.4023,-0.1865,-0.8354,17.94,-0.67,19.04,-165.79,-29.46,163.68
18.113991,0.4404,-0.1338,-0.8047,15.20,-5.00,11.84,-165.36,-29.31,163.34
18.128019,0.5469,-0.1099,-0.9014,28.69,1.28,9.52,-164.81,-29.18,163.10
18.128019,0.5327,-0.1494,-0.9741,33.39,11.41,2.99,-164.05,-29.29,162.86
18.188683,0.5249,-0.2231,-0.9697,30.03,7.39,-3.17,-163.39,-29.48,162.77
18.188683,0.5630,-0.2739,-0.9268,26.55,-0.49,-3.72,-162.86,-29.56,162.80
18.217382,0.5825,-0.2998,-0.8291,21.06,-4.82,-2.93,-162.42,-29.52,162.86
18.217382,0.4966,-0.1450,-0.6167,-16.36,-8.06,-8.12,-162.47,-29.41,163.00
18.248197,0.6919,-0.3467,-1.2432,-10.80,-8.18,-4.82,-162.91,-29.30,163.19
18.248197,0.6592,-0.3047,-0.9326,-8.73,-2.20,-2.62,-163.12,-29.21,163.26
18.308681,0.6484,-0.3809,-1.1221,-4.09,2.56,-1.28,-163.28,-29.25,163.26
18.308681,0.6055,-0.3657,-1.0908,-0.67,-0.85,-2.38,-163.33,-29.27,163.27
18.337910,0.6328,-0.3662,-1.1074,0.79,-1.28,-1.40,-163.36,-29.26,163.30
18.337910,0.6372,-0.3687,-1.0996,2.44,0.12,1.65,-163.33,-29.25,163.27
18.369981,0.6260,-0.3735,-1.0850,3.97,-0.37,5.00,-163.23,-29.22,163.16
18.369981,0.6050,-0.3423,-1.0430,5.98,-1.40,7.08,-163.05,-29.16,163.01
18.428256,0.5977,-0.3052,-1.0239,6.53,-3.11,6.90,-162.86,-29.07,162.84
18.428256,0.5938,-0.2651,-0.9810,5.92,-3.97,6.77,-162.67,-28.95,162.70
18.458373,0.5288,-0.2451,-0.9312,2.38,-1.59,6.10,-162.52,-28.85,162.55
18.458373,0.4331,-0.2432,-0.8853,-6.41,0.00,2.99,-162.51,-28.81,162.43
18.487397,0.4521,-0.2563,-0.9175,-13.92,-2.08,-3.72,-162.73,-28.78,162.42
18.487397,0.5337,-0.2539,-0.9614,-15.20,1.83,-10.31,-163.12,-28.82,162.56
18.548192,0.5386,-0.2593,-0.9956,-13.12,2.99,-13.49,-163.53,-28.96,162.79
18.548192,0.5479,-0.2466,-1.0093,-10.13,-5.25,-14.10,-163.91,-29.02,163.08
18.577423,0.5601,-0.2173,-0.9053,-9.28,-10.07,-14.89,-164.29,-28.94,163.44
18.577423,0.4932,-0.2026,-0.8218,-11.23,-14.65,-15.08,-164.70,-28.80,163.83
18.608551,0.4800,-0.2246,-0.8193,-12.39,-25.21,-14.40,-165.16,-28.49,164.27
18.608551,0.5352,-0.2583,-0.8506,-10.44,-28.50,-12.08,-165.62,-28.02,164.72
18.667435,0.5659,-0.2524,-0.8960,-7.20,-19.10,-8.36,-165.98,-27.61,165.07
18.667435,0.5444,-0.2510,-0.9351,-3.72,-8.61,-4.15,-166.19,-27.38,165.27
18.698199,0.4980,-0.2271,-0.9360,-1.89,-5.43,0.12,-166.28,-27.27,165.32
18.698199,0.4800,-0.2148,-0.9258,-3.42,-6.65,2.32,-166.33,-27.14,165.31
18.727445,0.5410,-0.2368,-0.9658,-3.91,-1.46,2.93,-166.40,-27.04,165.26
18.727445,0.6074,-0.2798,-1.0015,4.58,5.74,11.35,-166.33,-27.04,165.08
18.788283,0.5767,-0.2642,-0.9482,15.01,11.84,23.38,-165.91,-27.12,164.61
18.788283,0.4746,-0.1987,-0.8452,17.03,18.19,25.82,-165.27,-27.27,163.94
18.817476,0.4048,-0.1787,-0.8330,14.95,20.02,20.94,-164.65,-27.52,163.28
18.817476,0.3770,-0.1377,-0.7578,10.50,21.79,9.89,-164.15,-27.82,162.78
18.848216,0.3418,-0.1475,-0.6597,-2.20,22.34,-7.14,-163.98,-28.25,162.59
18.848216,0.3721,-0.2349,-0.6621,-16.78,14.53,-18.62,-164.27,-28.69,162.75
18.908549,0.4565,-0.3140,-0.7925,-21.42,4.39,-23.62,-164.89,-28.98,163.15
18.908549,0.6694,-0.4087,-1.0708,3.54,-13.12,-7.69,-165.32,-28.99,163.55
18.942074,0.5488,-0.3135,-0.8633,23.19,-23.19,7.93,-165.04,-28.60,163.60
18.942074,0.4297,-0.2354,-0.7373,26.86,-21.55,10.07,-164.48,-28.10,163.52
18.968069,0.3208,-0.2407,-0.5581,22.52,-18.98,9.16,-163.95,-27.67,163.43
18.968069,0.2754,-0.2036,-0.4316,15.99,-15.69,8.42,-163.54,-27.26,163.34
19.028237,0.2246,-0.1362,-0.3740,10.25,-10.62,6.96,-163.25,-26.97,163.24
19.028237,0.1880,-0.1265,-0.3657,4.64,-7.75,5.80,-163.06,-26.77,163.14
19.057599,0.2153,-0.2007,-0.3921,-1.89,-5.80,2.99,-163.02,-26.60,163.06
19.057599,0.2891,-0.3184,-0.4673,-7.69,-0.61,-0.73,-163.12,-26.53,163.04
19.118167,0.3472,-0.3311,-0.5186,-11.35,7.20,-3.66,-163.33,-26.61,163.04
19.118167,0.3096,-0.3013,-0.5161,-16.11,7.45,-3.85,-163.61,-26.80,163.03
19.163621,0.2905,-0.3008,-0.5601,-22.71,-3.30,-4.27,-164.04,-26.85,163.06
19.163621,0.3076,-0.2769,-0.5815,-27.53,-9.34,-8.97,-164.64,-26.75,163.22
19.178037,0.3447,-0.2578,-0.6191,-29.60,-4.70,-14.22,-165.36,-26.67,163.49
19.178037,0.3325,-0.2676,-0.6997,-28.44,-2.87,-16.24,-166.10,-26.70,163.81
19.238083,0.3154,-0.2886,-0.7617,-24.23,-13.85,-15.32,-166.82,-26.63,164.17
19.238083,0.3975,-0.2852,-0.8149,-18.01,-21.24,-11.47,-167.42,-26.32,164.53
19.267428,0.4268,-0.2642,-0.8604,-10.62,-20.51,-7.02,-167.84,-25.95,164.81
19.267428,0.4902,-0.2529,-0.8384,-3.42,-6.53,-2.87,-168.05,-25.68,164.95
19.298203,0.5029,-0.2441,-0.8604,2.81,15.50,1.71,-168.05,-25.78,164.90
19.298203,0.5400,-0.2554,-0.9180,8.85,37.41,7.08,-167.82,-26.30,164.62
19.358661,0.5361,-0.2676,-0.9648,15.14,51.64,14.40,-167.34,-27.13,164.10
19.358661,0.5078,-0.2773,-0.8916,21.30,57.37,23.44,-166.61,-28.10,163.32
19.387862,0.4795,-0.2832,-0.8325,24.17,57.80,28.38,-165.68,-29.08,162.34
19.387862,0.4736,-0.3086,-0.8608,23.32,49.93,27.04,-164.71,-29.97,161.33
19.417433,0.4072,-0.3032,-0.8716,18.07,27.22,21.48,-163.87,-30.57,160.48
19.417433,0.4385,-0.2788,-0.8403,10.01,-4.21,15.26,-163.34,-30.65,159.97
19.478237,0.5986,-0.2246,-0.7729,4.09,-9.64,9.70,-163.11,-30.37,159.74
19.478237,0.6909,-0.2227,-0.8027,5.80,20.57,4.52,-162.92,-30.42,159.52
19.507838,0.6128,-0.2510,-0.9131,25.21,28.38,4.33,-162.46,-30.94,159.18
19.507838,0.5576,-0.2485,-0.9907,37.29,-0.31,11.23,-161.64,-31.15,158.87
19.538264,0.5977,-0.2124,-0.8999,30.15,-13.92,17.09,-160.82,-30.84,158.59
19.538264,0.6436,-0.1968,-0.8135,26.67,6.59,12.27,-160.12,-30.66,158.26
19.598230,0.5464,-0.2280,-0.8550,28.81,14.65,5.62,-159.40,-30.83,157.93
19.598230,0.2769,-0.0806,-0.3271,-9.64,10.44,-8.79,-159.07,-31.10,157.79
19.627449,0.5991,-0.4023,-1.2847,-18.13,-6.84,-12.94,-159.60,-31.22,158.02
19.627449,0.6235,-0.2290,-0.7827,-9.83,-7.26,-12.63,-160.00,-31.17,158.32
19.658273,0.7368,-0.3911,-1.0410,-7.63,0.12,-13.18,-160.37,-31.18,158.62
19.658273,0.5586,-0.3828,-1.0239,-7.20,0.00,-10.13,-160.64,-31.30,158.84
19.718051,0.6294,-0.4009,-1.0371,-6.10,-7.81,-4.21,-160.87,-31.26,159.00
19.718051,0.7148,-0.4150,-0.9937,-4.94,-10.07,-0.67,-161.05,-31.10,159.10
19.747378,0.6797,-0.4297,-0.9917,-2.38,-9.28,1.34,-161.16,-30.91,159.14
19.747378,0.6665,-0.3828,-0.9922,-0.79,-5.55,2.93,-161.19,-30.76,159.13
19.778160,0.7119,-0.3779,-0.9961,1.22,-2.38,5.74,-161.16,-30.64,159.04
19.778160,0.6816,-0.3960,-1.0112,4.39,-0.06,7.26,-161.02,-30.58,158.87
19.837973,0.6162,-0.3774,-0.9858,4.15,-2.50,6.96,-160.86,-30.50,158.71
19.837973,0.6133,-0.3472,-0.9805,3.54,-3.05,8.12,-160.70,-30.39,158.54
19.867331,0.6001,-0.3179,-0.9219,0.31,0.18,8.30,-160.57,-30.29,158.36
19.867331,0.5811,-0.2920,-0.9043,-4.76,1.04,6.29,-160.53,-30.26,158.16
19.898173,0.5596,-0.2744,-0.9023,-7.08,5.31,3.72,-160.59,-30.27,158.01
19.898173,0.5493,-0.2651,-0.8779,-7.81,8.79,-2.08,-160.70,-30.40,157.91
19.958335,0.5684,-0.2642,-0.9053,-8.42,11.47,-5.07,-160.86,-30.62,157.90
19.958335,0.5591,-0.2734,-0.9219,-5.68,8.97,-5.13,-161.02,-30.87,157.91
19.988668,0.5737,-0.2783,-0.8931,-2.01,3.23,-5.13,-161.14,-31.00,157.95
19.988668,0.5767,-0.2651,-0.8608,1.59,-0.55,-7.02,-161.20,-31.06,158.06
20.017904,0.5659,-0.2642,-0.8311,1.40,-4.21,-9.34,-161.27,-31.07,158.25
20.017904,0.5776,-0.2744,-0.8052,-0.31,-6.90,-9.03,-161.39,-31.02,158.49
20.078241,0.5747,-0.2827,-0.8047,-2.50,-9.09,-7.51,-161.55,-30.93,158.72
20.078241,0.5430,-0.2764,-0.8247,-5.25,-15.62,-5.80,-161.76,-30.75,158.94
20.107751,0.5142,-0.2681,-0.8599,-8.00,-29.42,-4.94,-162.05,-30.36,159.22
20.107751,0.5181,-0.2637,-0.8755,-10.38,-41.26,-5.68,-162.43,-29.70,159.60
20.138561,0.5649,-0.2539,-0.8906,-12.08,-41.32,-5.92,-162.89,-28.93,160.03
20.138561,0.6108,-0.2881,-0.9531,-7.26,-35.77,2.20,-163.25,-28.22,160.34
20.198120,0.5430,-0.2480,-0.9146,-3.97,-27.89,7.75,-163.40,-27.58,160.43
20.198120,0.3809,-0.1958,-0.8042,-7.32,-20.75,4.88,-163.50,-27.08,160.43
20.227280,0.2998,-0.2437,-0.7642,-17.64,-25.45,-2.32,-163.82,-26.64,160.55
20.227280,0.3906,-0.2832,-0.8057,-23.25,-26.55,-6.71,-164.38,-26.15,160.82
20.258142,0.4927,-0.3320,-0.8848,-20.32,-15.99,-8.36,-164.97,-25.77,161.11
20.258142,0.5117,-0.3447,-0.9482,-10.93,1.04,-6.77,-165.38,-25.69,161.31
20.318227,0.4600,-0.3174,-0.8994,0.12,13.73,-3.60,-165.50,-25.88,161.35
20.318227,0.4541,-0.2339,-0.8882,12.82,15.08,3.54,-165.33,-26.19,161.25
20.347444,0.4072,-0.2090,-0.8135,18.80,9.58,8.54,-164.88,-26.37,161.00
20.347444,0.4058,-0.2949,-0.8115,18.07,4.70,6.71,-164.42,-26.46,160.78
20.378143,0.4302,-0.3022,-0.7729,19.96,0.85,7.26,-163.96,-26.46,160.60
20.378143,0.3652,-0.2832,-0.6616,19.59,-2.08,8.61,-163.49,-26.40,160.42
20.438790,0.2969,-0.2603,-0.5737,20.81,-4.94,10.01,-163.00,-26.27,160.22
20.438790,0.2173,-0.1309,-0.4531,18.13,-8.06,8.30,-162.53,-26.09,160.05
20.467423,0.2017,-0.1392,-0.3809,9.22,-14.34,5.62,-162.23,-25.83,159.97
20.467423,0.2461,-0.1855,-0.4185,-1.46,-13.92,-0.24,-162.18,-25.52,159.99
20.528247,0.2812,-0.2666,-0.4565,-9.46,-6.29,-5.37,-162.37,-25.36,160.11
20.528247,0.2764,-0.2954,-0.5176,-12.08,-5.19,-5.98,-162.66,-25.30,160.25
20.557523,0.2534,-0.2988,-0.5225,-14.10,-13.31,-4.46,-163.00,-25.16,160.39
20.557523,0.2485,-0.3003,-0.5327,-18.07,-21.91,-6.04,-163.42,-24.84,160.60
20.589209,0.3140,-0.2905,-0.5200,-23.93,-20.08,-10.80,-163.98,-24.47,160.89
20.589209,0.3589,-0.3086,-0.5962,-27.77,-6.90,-13.24,-164.66,-24.28,161.21
20.648583,0.3872,-0.3145,-0.6968,-26.12,6.16,-12.88,-165.32,-24.36,161.46
20.648583,0.3633,-0.3179,-0.7505,-23.19,11.35,-12.33,-165.90,-24.61,161.64
20.677450,0.3716,-0.3701,-0.8066,-18.68,4.64,-10.19,-166.40,-24.84,161.80
20.677450,0.4399,-0.3594,-0.8076,-11.66,2.50,-6.29,-166.77,-24.92,161.93
20.708618,0.3975,-0.3101,-0.7979,-3.91,1.77,-2.08,-166.95,-24.99,161.97
20.708618,0.4175,-0.2891,-0.8062,3.85,-0.43,1.89,-166.94,-24.99,161.93
20.767433,0.4937,-0.3081,-0.8477,10.07,8.06,6.16,-166.74,-25.03,161.79
20.767433,0.5098,-0.3169,-0.8843,14.04,28.26,9.40,-166.37,-25.35,161.48
20.797438,0.4316,-0.2886,-0.8828,16.66,34.97,11.96,-165.87,-25.93,161.02
20.797438,0.3843,-0.2974,-0.8921,18.01,27.28,14.22,-165.29,-26.47,160.50
20.827457,0.4937,-0.3354,-0.9375,17.70,26.79,11.78,-164.72,-26.88,160.02
20.827457,0.5566,-0.3755,-1.0010,18.25,42.42,8.06,-164.15,-27.49,159.54
20.887434,0.4883,-0.3354,-0.9790,20.69,42.05,10.62,-163.52,-28.27,159.01
20.887434,0.5186,-0.2217,-0.8062,21.55,45.17,12.15,-162.81,-29.00,158.42
20.917466,0.5254,-0.1904,-0.7695,21.36,53.34,11.78,-162.06,-29.86,157.75
20.917466,0.5449,-0.1709,-0.7861,21.36,56.09,9.22,-161.27,-30.83,157.04
20.947390,0.5308,-0.1616,-0.8076,17.64,48.65,3.78,-160.57,-31.78,156.43
20.947390,0.5527,-0.1816,-0.8335,19.59,15.20,3.48,-160.03,-32.37,156.06
21.007776,0.6685,-0.1826,-0.8784,25.21,-3.23,9.58,-159.47,-32.37,155.86
21.007776,0.6763,-0.2739,-0.8818,20.57,2.62,10.99,-158.87,-32.26,155.59
21.037408,0.5796,-0.2700,-0.6489,12.51,17.52,5.13,-158.38,-32.37,155.29
21.037408,0.5186,-0.1826,-0.6606,-1.46,10.62,-3.91,-158.19,-32.67,155.10
21.067439,0.5278,-0.3604,-1.1064,-5.68,-1.28,-6.47,-158.35,-32.77,155.17
21.067439,0.5479,-0.3643,-0.8721,-4.21,-4.33,-5.80,-158.51,-32.77,155.30
21.127460,0.6997,-0.3877,-0.9116,-11.72,-11.72,-5.13,-158.79,-32.65,155.48
21.127460,0.7822,-0.4116,-0.9629,-9.64,-9.52,-1.28,-159.11,-32.47,155.63
21.157472,0.7388,-0.4214,-0.9639,-6.35,-3.48,2.81,-159.29,-32.35,155.63
21.157472,0.6699,-0.4448,-1.0132,-2.20,-1.04,2.26,-159.34,-32.28,155.56
21.206126,0.6968,-0.4429,-0.9683,-0.67,-3.17,0.85,-159.35,-32.23,155.52
21.206126,0.7314,-0.4414,-0.9829,-0.67,-1.95,1.65,-159.37,-32.17,155.50
21.247305,0.6455,-0.4341,-1.0137,4.21,0.24,3.97,-159.30,-32.14,155.42
21.247305,0.6074,-0.3789,-0.9609,5.13,1.16,5.13,-159.13,-32.11,155.29
21.277384,0.6436,-0.3530,-0.9565,1.77,1.16,4.82,-158.99,-32.10,155.15
21.277384,0.6357,-0.3501,-0.9609,0.06,-0.79,3.54,-158.93,-32.07,155.03
21.307682,0.5981,-0.3296,-0.9214,-0.85,-5.62,3.85,-158.90,-31.98,154.97
21.307682,0.5718,-0.2974,-0.8828,-3.60,-10.74,3.48,-158.94,-31.79,154.94
21.367377,0.5703,-0.2764,-0.8584,-5.80,-15.26,2.38,-159.07,-31.52,154.98
21.367377,0.5781,-0.2544,-0.8149,-8.85,-13.12,0.00,-159.27,-31.22,155.07
21.397438,0.5464,-0.2544,-0.8184,-10.07,-5.00,-4.52,-159.53,-31.09,155.18
21.397438,0.5718,-0.2725,-0.8428,-8.54,-1.77,-7.81,-159.81,-31.07,155.34
21.427473,0.5923,-0.2612,-0.8257,-7.08,4.70,-10.38,-160.07,-31.16,155.51
21.427473,0.5757,-0.2676,-0.8315,-8.18,6.96,-13.12,-160.32,-31.37,155.70
21.487470,0.5620,-0.2876,-0.8477,-10.25,-1.77,-14.34,-160.66,-31.53,155.97
21.487470,0.5791,-0.2866,-0.8457,-12.02,-13.98,-13.06,-161.08,-31.46,156.33
21.517428,0.5625,-0.2710,-0.8340,-12.45,-23.80,-10.56,-161.55,-31.18,156.73
21.517428,0.5522,-0.2612,-0.8301,-12.21,-32.41,-8.30,-162.03,-30.71,157.15
21.547476,0.5576,-0.2490,-0.8320,-13.06,-35.64,-6.84,-162.50,-30.10,157.57
21.547476,0.6465,-0.3149,-0.9580,-7.75,-32.29,-1.16,-162.91,-29.48,157.91
21.607889,0.5713,-0.2603,-0.9331,-0.73,-25.33,5.74,-163.04,-28.91,158.04
21.607889,0.4355,-0.1973,-0.8799,-2.20,-19.47,1.40,-163.10,-28.46,158.09
21.637429,0.3643,-0.2285,-0.7451,-11.41,-21.00,-5.43,-163.32,-28.10,158.27
21.637429,0.4336,-0.2881,-0.7446,-23.38,-19.96,-10.56,-163.84,-27.75,158.59
21.667405,0.5215,-0.2837,-0.8325,-26.43,-11.60,-11.90,-164.53,-27.51,158.93
21.667405,0.5601,-0.2778,-0.8950,-21.18,-0.79,-8.91,-165.14,-27.45,159.19
21.727455,0.5122,-0.2856,-0.9185,-12.94,-0.85,-3.66,-165.54,-27.50,159.31
21.727455,0.4888,-0.2935,-0.9199,-6.16,-10.01,-0.85,-165.75,-27.40,159.37
21.757391,0.5112,-0.2856,-0.8613,-4.09,-12.39,-2.44,-165.90,-27.15,159.47
21.757391,0.5024,-0.2881,-0.8081,-3.23,-1.04,-0.98,-166.01,-27.05,159.54
21.787444,0.4941,-0.2939,-0.8481,5.00,2.56,7.02,-165.98,-27.06,159.46
21.787444,0.4121,-0.2349,-0.7549,14.47,5.68,12.70,-165.64,-27.09,159.19
21.847471,0.3179,-0.2261,-0.6968,13.49,-1.71,13.24,-165.20,-27.07,158.87
21.847471,0.2896,-0.3003,-0.7104,11.29,-21.91,11.23,-164.87,-26.76,158.66
21.877502,0.2905,-0.3101,-0.6494,12.45,-35.77,9.16,-164.62,-26.13,158.63
21.877502,0.2158,-0.1992,-0.5308,10.56,-46.08,7.20,-164.43,-25.29,158.71
21.937450,0.1689,-0.1343,-0.3970,5.43,-53.04,5.07,-164.35,-24.29,158.88
21.937450,0.1992,-0.0923,-0.3848,-5.62,-49.32,0.98,-164.46,-23.27,159.14
21.967450,0.2271,-0.1782,-0.4556,-15.01,-39.98,-1.65,-164.79,-22.42,159.41
21.967450,0.2988,-0.3057,-0.5728,-22.03,-28.99,-3.42,-165.28,-21.77,159.65
21.997408,0.4009,-0.3667,-0.6426,-22.52,-5.62,-2.14,-165.80,-21.45,159.80
21.997408,0.3086,-0.3374,-0.6426,-19.96,17.03,-0.06,-166.21,-21.60,159.74
22.057720,0.1899,-0.3320,-0.6938,-21.67,12.08,0.18,-166.58,-21.93,159.61
22.057720,0.2490,-0.3257,-0.7354,-22.40,-8.18,-0.24,-167.02,-21.94,159.58
22.087514,0.3545,-0.2788,-0.7427,-22.16,-11.84,-2.75,-167.50,-21.72,159.65
22.087514,0.3940,-0.2686,-0.7715,-19.10,-1.28,-4.64,-167.95,-21.61,159.73
22.117401,0.3037,-0.2686,-0.8164,-14.28,-2.01,-4.88,-168.33,-21.63,159.81
22.117401,0.2827,-0.2842,-0.8262,-8.79,-16.11,-2.99,-168.60,-21.46,159.91
22.177600,0.3799,-0.3096,-0.8110,-3.54,-15.69,1.16,-168.76,-21.12,159.99
22.177600,0.4854,-0.3198,-0.8271,2.32,5.80,6.16,-168.74,-20.98,159.90
22.225724,0.3872,-0.3101,-0.8540,9.16,26.98,9.77,-168.52,-21.32,159.61
22.225724,0.3003,-0.3066,-0.8481,14.47,21.24,12.88,-168.13,-21.76,159.21
22.237183,0.4341,-0.3228,-0.8301,17.09,25.02,13.49,-167.66,-22.10,158.79
22.237183,0.5200,-0.3257,-0.8594,18.01,51.88,10.01,-167.12,-22.77,158.31
22.297394,0.3994,-0.3213,-0.9077,18.31,61.46,7.32,-166.54,-23.90,157.76
22.297394,0.2183,-0.2627,-0.8916,12.76,23.86,7.20,-166.04,-24.72,157.32
22.327453,0.3857,-0.2246,-0.8188,5.37,-7.08,4.88,-165.79,-24.75,157.14
22.327453,0.5029,-0.2192,-0.8687,2.08,0.31,2.38,-165.72,-24.64,157.07
22.358271,0.4351,-0.2231,-0.9487,13.24,4.82,6.77,-165.54,-24.72,156.93
22.358271,0.4927,-0.1660,-0.9697,31.01,-2.38,14.22,-164.96,-24.65,156.66
22.417428,0.5776,-0.1489,-0.9160,29.48,8.42,12.39,-164.19,-24.61,156.32
22.417428,0.5322,-0.2251,-0.9087,22.16,16.05,9.70,-163.55,-24.81,155.97
22.447436,0.5200,-0.2314,-0.9282,22.03,15.99,10.56,-162.97,-25.05,155.62
22.447436,0.4858,-0.2490,-0.9517,24.90,3.85,10.68,-162.36,-25.18,155.29
22.477550,0.4756,-0.2798,-0.9854,24.05,-7.26,10.25,-161.77,-25.07,155.07
22.477550,0.4912,-0.2817,-1.0000,22.46,-2.14,10.38,-161.24,-24.87,154.87
22.537442,0.4980,-0.2905,-0.9863,24.90,9.52,6.35,-160.66,-24.91,154.62
22.537442,0.4302,-0.3149,-0.8823,21.48,13.31,2.20,-160.11,-25.08,154.43
22.567434,0.3457,-0.2393,-0.7305,3.42,12.94,0.18,-159.79,-25.36,154.26
22.567434,0.4556,-0.2900,-1.0039,-11.78,-8.00,-0.79,-159.90,-25.39,154.23
22.597309,0.6626,-0.4077,-1.0693,-7.81,-14.89,-2.69,-160.18,-25.14,154.35
22.597309,0.6230,-0.4355,-1.0444,-2.69,-6.59,-0.61,-160.33,-24.96,154.46
22.658580,0.4585,-0.3647,-1.0542,-0.98,-3.78,2.08,-160.36,-24.87,154.45
22.658580,0.4531,-0.3472,-1.0674,-4.03,-4.52,1.59,-160.41,-24.77,154.42
22.687443,0.5674,-0.4038,-1.0962,-3.78,-4.33,1.95,-160.49,-24.67,154.41
22.687443,0.6128,-0.4204,-1.0459,-2.44,-2.44,2.50,-160.54,-24.58,154.36
22.717427,0.5728,-0.3706,-1.0273,-0.49,-1.16,2.20,-160.55,-24.54,154.31
22.717427,0.5469,-0.3438,-1.0024,-0.73,-0.18,1.28,-160.55,-24.51,154.26
22.777495,0.5200,-0.3491,-1.0073,-3.42,0.55,0.43,-160.58,-24.52,154.23
22.777495,0.4800,-0.3496,-1.0059,-5.74,-4.70,1.71,-160.67,-24.47,154.20
22.808743,0.4385,-0.3345,-0.9736,-9.46,-12.02,1.16,-160.83,-24.29,154.23
22.808743,0.4556,-0.3110,-0.9248,-13.06,-11.96,-1.22,-161.10,-24.04,154.31
22.837417,0.4331,-0.3169,-0.9141,-14.95,-2.38,-4.70,-161.43,-23.94,154.41
22.837417,0.4771,-0.3076,-0.9194,-14.40,3.91,-9.03,-161.79,-24.00,154.54
22.897186,0.5010,-0.3047,-0.9312,-10.62,14.28,-12.57,-162.11,-24.25,154.69
22.897186,0.5020,-0.2866,-0.9062,-6.59,20.39,-13.43,-162.33,-24.68,154.82
22.930464,0.4653,-0.2817,-0.9028,-6.41,15.01,-12.02,-162.52,-25.11,154.95
22.930464,0.4858,-0.2642,-0.8945,-7.32,4.15,-8.91,-162.72,-25.36,155.09
22.958884,0.5034,-0.2515,-0.8818,-6.90,-0.73,-5.37,-162.93,-25.42,155.22
22.958884,0.4771,-0.2495,-0.8657,-5.19,-3.48,-3.30,-163.09,-25.41,155.31
23.017324,0.4385,-0.2764,-0.8584,-3.97,-11.17,-1.89,-163.22,-25.29,155.40
23.017324,0.4551,-0.2769,-0.8770,-5.92,-17.27,-2.01,-163.38,-25.01,155.53
23.047504,0.4849,-0.2642,-0.9214,-9.70,-16.91,-3.30,-163.61,-24.70,155.70
23.047504,0.4927,-0.2490,-0.9292,-13.00,-12.70,-3.30,-163.92,-24.43,155.86
23.077480,0.4565,-0.2529,-0.9507,-13.43,-12.21,-2.62,-164.25,-24.22,155.99
23.077480,0.4385,-0.2397,-0.9312,-11.84,-14.65,-2.20,-164.56,-23.97,156.12
23.137439,0.4062,-0.2290,-0.8916,-10.56,-18.74,-1.28,-164.84,-23.66,156.25
23.137439,0.3896,-0.2520,-0.8711,-10.44,-24.66,-0.49,-165.11,-23.25,156.40
23.167414,0.4199,-0.2827,-0.8823,-10.25,-25.76,0.92,-165.38,-22.75,156.54
23.167414,0.4712,-0.2896,-0.8892,-8.30,-16.48,2.81,-165.61,-22.32,156.63
23.227761,0.4517,-0.2837,-0.8936,-4.58,-1.89,4.58,-165.72,-22.13,156.59
23.227761,0.3701,-0.2651,-0.8823,-0.85,4.76,5.68,-165.72,-22.16,156.45
23.267362,0.2505,-0.2793,-0.8545,1.53,-11.90,6.77,-165.66,-22.08,156.32
23.267362,0.2515,-0.3057,-0.8345,0.61,-36.74,6.96,-165.64,-21.54,156.32
23.287188,0.2764,-0.3389,-0.7632,0.55,-49.26,7.45,-165.67,-20.65,156.42
23.287188,0.2490,-0.3042,-0.6899,3.97,-53.28,8.61,-165.67,-19.61,156.54
23.347433,0.1777,-0.2349,-0.6343,6.90,-55.79,9.16,-165.61,-18.50,156.66
23.347433,0.1616,-0.1475,-0.5566,9.89,-48.22,6.16,-165.48,-17.45,156.79
23.377511,0.1597,-0.0830,-0.4722,4.64,-34.00,0.98,-165.37,-16.63,156.94
23.377511,0.1421,-0.1602,-0.4814,-4.64,-19.90,-3.72,-165.43,-16.14,157.11
23.409383,0.2144,-0.2686,-0.5859,-8.00,-7.39,-5.37,-165.62,-15.90,157.27
23.409383,0.2969,-0.3486,-0.6514,-7.39,12.33,-3.42,-165.79,-15.98,157.32
23.467423,0.2349,-0.3369,-0.6597,-8.48,22.58,0.73,-165.92,-16.36,157.21
23.467423,0.2266,-0.3364,-0.6924,-11.72,17.40,2.20,-166.07,-16.74,157.04
23.497654,0.3311,-0.3940,-0.7578,-13.06,21.48,2.81,-166.28,-17.08,156.87
23.497654,0.3252,-0.3535,-0.7729,-9.89,29.48,5.62,-166.44,-17.57,156.62
23.527299,0.2153,-0.2627,-0.7075,-7.45,19.90,7.20,-166.52,-18.04,156.31
23.527299,0.1855,-0.2607,-0.6724,-8.30,0.31,5.37,-166.61,-18.19,156.10
23.587113,0.2803,-0.2622,-0.6763,-10.50,-6.96,1.16,-166.78,-18.07,156.04
23.587113,0.3203,-0.2778,-0.7744,-9.89,-2.93,-0.24,-167.00,-17.97,156.04
23.617156,0.3081,-0.2944,-0.8716,-6.10,-3.66,1.83,-167.16,-17.91,156.02
23.617156,0.3125,-0.3076,-0.8872,-1.53,-6.04,5.19,-167.22,-17.79,155.95
23.647916,0.3145,-0.3223,-0.8501,2.81,-0.73,8.18,-167.16,-17.68,155.80
23.647916,0.3252,-0.3022,-0.8208,5.86,7.69,8.79,-167.00,-17.70,155.57
23.707738,0.3877,-0.3022,-0.8306,5.86,26.00,7.39,-166.79,-17.98,155.29
23.707738,0.3594,-0.3188,-0.8833,7.32,44.13,7.39,-166.55,-18.65,154.92
23.737422,0.1558,-0.3018,-0.9087,9.77,30.82,8.48,-166.23,-19.40,154.50
23.737422,0.1553,-0.3184,-0.9448,7.51,-8.85,5.31,-165.98,-19.53,154.27
23.767487,0.3169,-0.3550,-0.9922,3.85,-22.71,-0.92,-165.89,-19.17,154.31
23.767487,0.4785,-0.3218,-1.0308,8.85,-6.96,1.16,-165.81,-18.84,154.40
23.827475,0.5649,-0.2734,-1.0562,22.28,31.56,6.96,-165.44,-19.05,154.22
23.827475,0.4536,-0.2500,-1.0298,37.29,65.98,13.73,-164.65,-19.99,153.66
23.887584,0.3003,-0.1821,-0.9043,41.87,63.05,17.21,-163.54,-21.17,152.87
23.887584,0.4106,-0.1567,-0.8169,31.86,55.54,13.43,-162.52,-22.15,152.13
23.889779,0.4917,-0.2769,-0.8545,23.50,62.44,8.00,-161.74,-23.24,151.47
23.889779,0.4824,-0.3379,-1.0103,30.27,32.41,8.91,-160.97,-24.10,150.90
23.947528,0.4922,-0.3394,-1.0977,29.24,-6.65,12.82,-160.22,-24.21,150.57
23.947528,0.5894,-0.2861,-1.0205,24.90,-8.00,10.80,-159.63,-23.90,150.39
23.977505,0.5356,-0.2095,-0.9277,30.03,17.88,4.52,-158.99,-23.98,150.14
23.977505,0.3755,-0.2783,-0.8809,28.75,2.26,-0.49,-158.32,-24.19,150.01
24.007762,0.3564,-0.3735,-0.9199,16.17,-9.58,3.11,-157.88,-24.07,150.01
24.007762,0.4644,-0.3901,-0.9292,12.39,-3.30,1.46,-157.62,-23.92,149.99
24.067439,0.5337,-0.4316,-0.7729,7.51,-4.03,-2.26,-157.41,-23.88,150.01
24.067439,0.4736,-0.4604,-1.0957,0.61,-13.00,0.67,-157.39,-23.75,150.09
24.097637,0.3057,-0.4355,-1.1353,0.00,-22.77,8.97,-157.41,-23.34,150.13
24.097637,0.4604,-0.4707,-1.0513,-0.73,-3.97,4.39,-157.41,-23.03,150.10
24.127404,0.6001,-0.5225,-1.0400,3.66,1.16,4.82,-157.35,-22.99,150.00
24.127404,0.5435,-0.5083,-0.9902,3.11,-6.59,8.73,-157.21,-22.90,149.86
24.190162,0.5156,-0.4644,-1.0020,1.16,-15.01,8.91,-157.15,-22.60,149.77
24.190162,0.5225,-0.4673,-1.0107,3.72,-15.14,5.37,-157.10,-22.26,149.75
24.217514,0.4736,-0.4380,-0.9985,4.88,-14.83,2.44,-157.02,-21.96,149.79
24.217514,0.4385,-0.3774,-0.9458,-3.60,-10.19,-0.73,-157.03,-21.71,149.88
24.247520,0.4307,-0.3638,-0.9561,-14.47,-1.46,-7.32,-157.27,-21.64,150.00
24.247520,0.4204,-0.3589,-0.9849,-17.21,6.65,-11.90,-157.67,-21.77,150.16
24.307574,0.3872,-0.3345,-0.9819,-14.83,9.58,-14.89,-158.07,-22.04,150.34
24.307574,0.4131,-0.2573,-0.9438,-12.33,10.31,-18.37,-158.43,-22.35,150.58
24.337359,0.4434,-0.2432,-0.8833,-13.73,15.08,-21.00,-158.80,-22.74,150.87
24.337359,0.4629,-0.2817,-0.8403,-16.97,21.06,-18.92,-159.21,-23.24,151.11
24.368503,0.4614,-0.3164,-0.8589,-17.64,21.61,-14.71,-159.63,-23.77,151.26
24.368503,0.4756,-0.3374,-0.8677,-15.32,15.56,-10.56,-160.00,-24.21,151.36
24.427513,0.4932,-0.3325,-0.8799,-13.37,9.09,-7.45,-160.32,-24.50,151.43
24.427513,0.4546,-0.3154,-0.8838,-14.65,-2.20,-5.55,-160.64,-24.61,151.52
24.457459,0.4624,-0.2852,-0.9067,-17.46,-16.85,-3.78,-161.04,-24.46,151.69
24.457459,0.4473,-0.2437,-0.8027,-20.57,-23.07,-2.50,-161.50,-24.08,151.90
24.487811,0.4155,-0.2803,-0.8301,-27.83,-28.56,-2.01,-162.10,-23.62,152.13
24.487811,0.4170,-0.3047,-0.9019,-26.25,-36.13,0.92,-162.75,-23.00,152.37
24.547528,0.3882,-0.3164,-0.9023,-18.13,-42.97,4.82,-163.28,-22.21,152.57
24.547528,0.3774,-0.3096,-0.8745,-13.61,-38.88,5.13,-163.65,-21.38,152.73
24.577511,0.3940,-0.3311,-0.9126,-13.31,-27.28,4.88,-163.95,-20.72,152.84
24.577511,0.4248,-0.3770,-1.0171,-10.68,-14.47,6.23,-164.21,-20.30,152.85
24.637431,0.3926,-0.4043,-1.0474,-2.93,-9.16,8.36,-164.32,-20.06,152.76
24.637431,0.3467,-0.3843,-0.9307,4.94,-14.59,9.95,-164.25,-19.77,152.63
24.667439,0.3047,-0.3359,-0.7954,10.31,-19.23,10.62,-164.04,-19.37,152.52
24.667439,0.2871,-0.2588,-0.6826,9.83,-16.48,9.22,-163.80,-18.97,152.43
24.697445,0.2783,-0.2168,-0.6333,4.46,-10.38,8.79,-163.62,-18.66,152.33
24.697445,0.2466,-0.1909,-0.6406,-1.40,-10.99,6.84,-163.56,-18.41,152.22
24.757433,0.2388,-0.2241,-0.6543,-7.26,-12.76,0.79,-163.65,-18.17,152.20
24.757433,0.1978,-0.2446,-0.6880,-12.57,-26.18,-2.50,-163.91,-17.81,152.34
24.787466,0.2344,-0.2773,-0.7822,-11.41,-42.48,-2.20,-164.23,-17.16,152.60
24.787466,0.3145,-0.3179,-0.8516,-7.08,-39.18,-1.53,-164.51,-16.34,152.89
24.817247,0.3228,-0.3608,-0.8315,0.00,-17.46,0.00,-164.64,-15.80,153.07
24.817247,0.2515,-0.3218,-0.7183,6.41,2.87,2.93,-164.56,-15.68,153.05
24.877728,0.1562,-0.2285,-0.5908,8.54,6.41,3.17,-164.37,-15.78,152.93
24.877728,0.1055,-0.1450,-0.5146,4.58,-1.28,0.24,-164.21,-15.83,152.86
24.907436,0.1450,-0.1743,-0.5181,-4.88,-11.17,-3.66,-164.23,-15.70,152.92
24.907436,0.2739,-0.2588,-0.6104,-13.06,-6.71,-5.31,-164.47,-15.53,153.06
24.937301,0.3164,-0.3506,-0.7627,-16.72,9.58,-4.39,-164.80,-15.60,153.13
24.937301,0.2090,-0.4067,-0.8892,-15.44,12.39,-2.62,-165.12,-15.88,153.10
24.997617,0.2256,-0.3867,-0.8291,-13.61,1.10,-1.16,-165.42,-15.99,153.08
24.997617,0.2729,-0.3071,-0.6914,-10.31,10.13,-0.98,-165.65,-16.08,153.06
25.029677,0.2471,-0.2397,-0.6167,-5.74,24.60,-3.11,-165.78,-16.44,152.97
25.029677,0.1992,-0.2681,-0.6929,-3.11,26.06,-4.52,-165.84,-16.98,152.88
25.057418,0.1836,-0.3193,-0.8188,-3.36,12.21,-3.11,-165.89,-17.38,152.83
25.057418,0.2192,-0.3804,-0.8613,-2.75,-6.77,0.00,-165.96,-17.42,152.82
25.117472,0.2920,-0.3677,-0.8037,-0.18,-12.70,2.32,-166.00,-17.19,152.83
25.117472,0.3921,-0.3164,-0.7720,2.56,6.41,1.53,-165.96,-17.09,152.79
25.147466,0.4141,-0.3252,-0.8408,2.14,34.85,0.24,-165.87,-17.51,152.63
25.147466,0.4023,-0.3872,-0.9668,3.85,54.14,1.16,-165.72,-18.40,152.33
25.177882,0.3574,-0.4502,-1.0981,10.68,60.79,4.82,-165.43,-19.52,151.90
25.177882,0.1797,-0.3389,-1.0376,14.77,26.73,9.77,-165.01,-20.35,151.45
25.237478,0.2505,-0.2627,-0.9150,12.82,-5.25,7.81,-164.64,-20.43,151.19
25.237478,0.3857,-0.2334,-0.8555,9.52,-4.70,0.67,-164.40,-20.26,151.13
25.267427,0.4995,-0.2192,-0.8994,12.33,21.00,-1.71,-164.18,-20.42,151.08
25.267427,0.4351,-0.2339,-0.9365,20.39,41.26,3.23,-163.76,-21.06,150.83
25.317202,0.2964,-0.1948,-0.9014,22.77,29.66,8.06,-163.16,-21.74,150.43
25.317202,0.2954,-0.1792,-0.9150,13.85,1.04,6.41,-162.68,-21.96,150.14
25.357193,0.4048,-0.2134,-0.9561,10.86,-22.09,2.62,-162.46,-21.70,150.13
25.357193,0.5371,-0.3008,-0.9946,15.38,-6.59,6.96,-162.20,-21.35,150.13
25.387410,0.5317,-0.3535,-1.0044,18.49,7.69,6.35,-161.79,-21.36,149.94
25.387410,0.5767,-0.3208,-0.9380,23.80,2.44,3.78,-161.31,-21.44,149.78
25.417446,0.4985,-0.3306,-0.9585,23.38,-13.55,7.08,-160.79,-21.30,149.71
25.417446,0.4204,-0.3115,-0.9624,13.92,-16.48,11.17,-160.39,-20.89,149.62
25.478182,0.3643,-0.2891,-0.8916,6.04,9.09,3.78,-160.15,-20.78,149.47
25.478182,0.3076,-0.3047,-0.8857,0.06,18.19,-2.99,-160.05,-21.07,149.33
25.507749,0.2744,-0.2495,-0.9429,-6.53,18.49,-4.09,-160.08,-21.45,149.24
25.507749,0.3584,-0.2588,-0.9414,-12.51,10.13,-6.41,-160.27,-21.76,149.21
25.537438,0.4492,-0.3594,-1.0957,-9.16,1.22,-7.39,-160.56,-21.90,149.30
25.537438,0.3955,-0.4419,-1.0625,-2.26,-5.62,-2.26,-160.69,-21.90,149.40
25.597496,0.4351,-0.4492,-1.0283,-5.19,-15.44,1.95,-160.79,-21.69,149.46
25.597496,0.5596,-0.3877,-1.0098,-7.69,-18.19,3.91,-160.95,-21.34,149.52
25.628413,0.6050,-0.4214,-1.0591,-4.09,-12.02,3.91,-161.09,-21.02,149.53
25.628413,0.4570,-0.4702,-1.0562,1.34,-5.19,1.46,-161.11,-20.84,149.53
25.657421,0.3970,-0.4189,-1.0269,3.05,-0.43,0.31,-161.05,-20.79,149.52
25.657421,0.4355,-0.4111,-1.0190,0.12,-0.61,-0.79,-161.02,-20.79,149.51
25.717417,0.4937,-0.4004,-1.0063,-2.32,-2.08,-2.87,-161.06,-20.78,149.55
25.717417,0.4707,-0.3677,-1.0283,-2.44,0.12,-3.91,-161.14,-20.78,149.62
25.747733,0.3960,-0.3350,-1.0288,-4.39,0.00,-4.58,-161.23,-20.81,149.69
25.747733,0.3730,-0.3086,-0.9980,-8.61,-2.69,-5.68,-161.40,-20.83,149.79
25.778383,0.4141,-0.2925,-0.9438,-13.24,-7.87,-5.55,-161.68,-20.76,149.94
25.778383,0.4541,-0.3008,-0.9419,-12.94,-10.86,-1.40,-162.00,-20.60,150.07
25.837430,0.4258,-0.2769,-0.9248,-7.26,-0.43,0.79,-162.23,-20.45,150.12
25.837430,0.3613,-0.2671,-0.8979,-3.23,12.15,-2.26,-162.31,-20.59,150.07
25.867409,0.3765,-0.2969,-0.8696,-4.82,16.72,-6.41,-162.37,-20.90,150.05
25.867409,0.4473,-0.3135,-0.9019,-8.73,22.34,-7.87,-162.52,-21.31,150.05
25.897539,0.4829,-0.3154,-0.9590,-8.12,28.93,-6.23,-162.68,-21.86,150.01
25.897539,0.4551,-0.3037,-0.9541,-4.03,27.40,-3.66,-162.76,-22.44,149.90
25.957460,0.4282,-0.2925,-0.9097,-2.14,16.91,-3.17,-162.77,-22.88,149.80
25.957460,0.4531,-0.2944,-0.9756,0.73,2.50,-0.67,-162.80,-23.08,149.78
25.987419,0.4170,-0.2300,-0.8623,1.83,-12.33,0.18,-162.75,-22.96,149.80
25.987419,0.4238,-0.2363,-0.7583,-11.84,-13.55,-1.59,-162.89,-22.70,149.91
26.047566,0.4072,-0.2729,-0.8906,-21.00,-18.31,-2.20,-163.31,-22.43,150.05
26.047566,0.4521,-0.3130,-0.9927,-18.80,-26.37,-1.22,-163.79,-22.00,150.23
26.078886,0.4741,-0.3218,-1.0049,-10.01,-28.38,3.05,-164.14,-21.47,150.39
26.078886,0.4336,-0.2715,-0.9287,-4.76,-24.96,8.73,-164.29,-20.91,150.42
26.107735,0.3696,-0.2598,-0.8823,-5.25,-21.24,9.34,-164.36,-20.42,150.37
26.107735,0.2910,-0.2588,-0.8496,-9.03,-22.34,7.93,-164.49,-19.96,150.32
26.167447,0.2666,-0.2759,-0.8647,-11.66,-29.72,5.80,-164.71,-19.42,150.33
26.167447,0.3291,-0.2871,-0.8745,-9.46,-30.33,5.07,-164.95,-18.79,150.41
26.197494,0.3506,-0.2847,-0.8818,-2.56,-18.92,6.84,-165.09,-18.29,150.43
26.197494,0.2979,-0.2998,-0.8677,4.88,-9.09,8.24,-165.03,-18.00,150.35
26.229081,0.1968,-0.3345,-0.8462,6.96,-17.27,8.61,-164.86,-17.72,150.23
26.229081,0.1328,-0.3257,-0.7632,3.11,-43.40,7.63,-164.76,-17.08,150.24
26.287441,0.1719,-0.2866,-0.6660,-0.18,-62.99,5.92,-164.79,-15.99,150.43
26.287441,0.2573,-0.2310,-0.6011,0.67,-59.45,4.21,-164.87,-14.74,150.70
26.334974,0.2441,-0.2217,-0.6401,6.77,-38.57,2.56,-164.85,-13.79,150.91
26.334974,0.1445,-0.2432,-0.6636,10.44,-29.48,2.69,-164.70,-13.17,151.04
26.347190,0.0713,-0.3330,-0.7212,4.46,-43.88,5.80,-164.56,-12.45,151.16
26.347190,0.1841,-0.3486,-0.7124,-0.06,-47.00,6.65,-164.57,-11.49,151.30
26.407698,0.2593,-0.2275,-0.5640,0.00,-14.77,2.69,-164.59,-10.84,151.38
26.407698,0.1782,-0.1650,-0.5088,-3.60,16.91,1.22,-164.60,-10.92,151.30
26.437414,0.0176,-0.2651,-0.6528,-11.23,3.42,1.46,-164.72,-11.17,151.18
26.437414,0.0278,-0.3647,-0.8115,-21.48,-23.19,-0.98,-165.07,-10.94,151.22
26.467414,0.1826,-0.3398,-0.8438,-25.33,-23.50,-2.87,-165.60,-10.44,151.40
26.467414,0.2373,-0.2886,-0.8457,-14.95,7.39,-3.23,-166.03,-10.33,151.48
26.527405,0.1338,-0.2549,-0.7456,-1.22,19.59,-3.17,-166.17,-10.65,151.44
26.527405,0.1416,-0.2451,-0.6421,4.64,26.18,-5.68,-166.10,-11.10,151.38
26.557426,0.1807,-0.2778,-0.6729,-2.38,41.38,-12.33,-166.06,-11.80,151.35
26.557426,0.2153,-0.3218,-0.7764,-9.58,50.35,-13.98,-166.20,-12.78,151.35
26.587879,0.2583,-0.3540,-0.8491,-6.53,54.57,-11.29,-166.36,-13.86,151.30
26.587879,0.2959,-0.3721,-0.8608,0.98,61.16,-8.36,-166.38,-15.04,151.16
26.647429,0.2183,-0.3320,-0.8496,4.64,52.49,-6.16,-166.25,-16.21,150.96
26.647429,0.2344,-0.3389,-0.8535,1.28,27.89,-7.26,-166.15,-17.00,150.85
26.677464,0.3784,-0.3530,-0.9243,0.85,22.40,-8.00,-166.15,-17.48,150.86
26.677464,0.4111,-0.3311,-0.9976,8.85,31.07,-1.65,-166.04,-18.03,150.79
26.707753,0.3193,-0.3291,-1.0420,17.82,26.06,4.27,-165.69,-18.61,150.56
26.707753,0.2700,-0.3682,-1.0474,23.19,4.46,5.62,-165.20,-18.86,150.34
26.767441,0.3960,-0.3359,-0.9888,24.78,-1.10,3.72,-164.67,-18.81,150.23
26.767441,0.4951,-0.2627,-0.9194,26.49,23.38,1.95,-164.12,-18.99,150.09
26.797476,0.4565,-0.2603,-0.9326,29.72,48.52,2.56,-163.45,-19.71,149.78
26.797476,0.2910,-0.2026,-0.8979,37.23,29.24,5.19,-162.65,-20.51,149.39
26.827439,0.3647,-0.1353,-0.9053,37.35,-1.34,7.81,-161.81,-20.64,149.17
26.827439,0.4458,-0.2456,-0.9336,32.71,5.80,6.77,-161.05,-20.62,148.98
26.887429,0.5161,-0.3604,-1.0093,29.85,5.92,6.47,-160.35,-20.70,148.78
26.887429,0.5234,-0.3979,-1.0718,26.37,1.10,9.40,-159.72,-20.71,148.58
26.917442,0.4263,-0.3496,-1.0527,24.29,-13.12,13.92,-159.15,-20.52,148.36
26.917442,0.3901,-0.3716,-0.9736,22.40,-18.68,12.08,-158.63,-20.08,148.23
26.947494,0.3247,-0.3706,-0.7520,15.75,0.18,6.29,-158.20,-19.81,148.11
26.947494,0.3525,-0.3291,-0.8701,0.79,8.24,1.53,-157.99,-19.93,147.97
27.007726,0.4463,-0.3662,-1.0591,-2.93,0.18,1.40,-158.02,-19.98,147.89
27.007726,0.4077,-0.3677,-0.9741,-1.65,-1.10,-0.31,-158.05,-19.96,147.87
27.037795,0.3330,-0.3828,-1.0195,-2.26,-2.26,-1.04,-158.10,-19.94,147.89
27.037795,0.4307,-0.4399,-0.9849,-2.69,-4.70,-0.24,-158.16,-19.87,147.91
27.067792,0.5337,-0.4424,-1.0327,-0.43,-1.34,1.16,-158.21,-19.81,147.92
27.067792,0.4170,-0.4468,-1.0000,3.23,-0.55,2.50,-158.15,-19.79,147.87
27.127384,0.3745,-0.4077,-1.0015,2.32,-2.69,2.56,-158.08,-19.73,147.82
27.127384,0.4395,-0.3794,-0.9653,-0.92,-0.79,2.75,-158.05,-19.68,147.77
27.157444,0.4609,-0.4058,-0.9951,-2.38,0.00,3.05,-158.07,-19.65,147.71
27.157444,0.4238,-0.4150,-1.0127,-0.37,-3.11,3.66,-158.08,-19.59,147.63
27.189388,0.4370,-0.4082,-0.9976,-0.06,-4.15,2.81,-158.07,-19.49,147.60
27.189388,0.3916,-0.3862,-0.9365,-1.65,-2.38,1.71,-158.07,-19.42,147.56
27.247390,0.3887,-0.3589,-0.8901,-5.49,-3.23,0.31,-158.14,-19.36,147.56
27.247390,0.3784,-0.3394,-0.9146,-8.91,-2.87,-2.01,-158.30,-19.31,147.59
27.277505,0.3267,-0.3867,-0.9473,-10.19,0.18,-5.86,-158.53,-19.31,147.67
27.277505,0.3384,-0.4336,-0.9609,-11.54,5.00,-9.40,-158.79,-19.42,147.79
27.307753,0.3999,-0.4238,-0.9424,-10.68,13.24,-11.41,-159.06,-19.67,147.91
27.307753,0.4258,-0.3931,-0.9146,-8.54,17.27,-11.23,-159.28,-20.06,148.00
27.367326,0.4165,-0.3691,-0.9077,-7.75,7.51,-8.42,-159.47,-20.38,148.08
27.367326,0.3813,-0.2930,-0.9346,-10.56,-4.33,-4.39,-159.69,-20.44,148.20
27.397107,0.3696,-0.2515,-0.9556,-13.73,-8.12,-4.76,-159.99,-20.34,148.33
27.397107,0.3657,-0.2822,-0.9595,-13.61,-9.46,-7.69,-160.33,-20.23,148.51
27.457413,0.3984,-0.3301,-1.0317,-4.64,-13.37,-5.62,-160.61,-20.06,148.74
27.457413,0.3560,-0.3198,-0.8247,-5.00,-14.04,-4.70,-160.75,-19.82,148.94
27.487461,0.3345,-0.3286,-0.8159,-11.66,-14.28,-3.66,-160.99,-19.59,149.12
27.487461,0.3384,-0.3569,-0.8960,-14.04,-17.21,-2.62,-161.32,-19.32,149.29
27.517575,0.3662,-0.4062,-0.9722,-11.54,-20.20,-0.73,-161.64,-18.98,149.45
27.517575,0.3813,-0.3955,-0.9741,-7.14,-20.94,3.48,-161.86,-18.57,149.57
27.577468,0.4043,-0.3477,-0.9180,-2.75,-9.58,6.53,-161.95,-18.23,149.57
27.577468,0.3174,-0.3018,-0.8403,0.00,3.42,6.84,-161.93,-18.15,149.44
27.607786,0.2495,-0.2808,-0.8105,-1.46,2.56,4.88,-161.89,-18.19,149.28
27.607786,0.2666,-0.3086,-0.8560,-5.25,-7.20,1.77,-161.94,-18.13,149.22
27.637442,0.3813,-0.3013,-0.8911,-5.62,-5.37,1.71,-162.07,-17.97,149.24
27.637442,0.3896,-0.2881,-0.9126,-1.95,4.94,3.54,-162.13,-17.96,149.18
27.697889,0.3081,-0.2876,-0.9180,2.62,3.91,4.09,-162.08,-18.05,149.05
27.697889,0.2573,-0.2695,-0.8638,4.27,-13.06,4.94,-161.98,-17.93,148.98
27.727495,0.2490,-0.2461,-0.7910,1.65,-30.21,5.00,-161.93,-17.47,149.03
27.727495,0.2710,-0.2480,-0.7939,-2.44,-39.61,3.30,-161.99,-16.76,149.19
27.757445,0.3325,-0.2949,-0.8652,-3.42,-33.75,0.37,-162.13,-16.03,149.41
27.757445,0.2456,-0.3018,-0.8589,-3.85,-28.20,1.16,-162.25,-15.48,149.60
27.817410,0.1484,-0.2524,-0.8228,-7.39,-39.12,1.16,-162.41,-14.84,149.78
27.817410,0.1226,-0.2241,-0.8120,-11.96,-52.98,-1.59,-162.69,-13.96,150.09
27.847933,0.1953,-0.2065,-0.8008,-17.09,-53.89,-4.33,-163.09,-12.93,150.51
27.847933,0.2534,-0.2354,-0.8311,-21.42,-37.41,-3.78,-163.56,-12.08,150.88
27.877410,0.2720,-0.2627,-0.8682,-23.01,-17.21,-0.49,-164.06,-11.59,151.07
27.877410,0.2271,-0.2959,-0.8901,-23.07,-3.23,1.10,-164.53,-11.41,151.10
27.937437,0.1880,-0.3135,-0.9331,-22.83,-3.60,0.49,-164.99,-11.37,151.08
27.937437,0.2090,-0.2925,-0.9248,-22.28,-5.74,-1.77,-165.44,-11.27,151.12
27.967660,0.2217,-0.2505,-0.8833,-23.93,-1.65,-2.99,-165.92,-11.21,151.18
27.967660,0.2148,-0.2148,-0.8633,-28.38,3.78,-3.66,-166.45,-11.24,151.23
27.998057,0.2046,-0.2075,-0.8760,-31.01,6.35,-3.48,-167.06,-11.37,151.26
27.998057,0.1782,-0.1895,-0.8701,-34.91,3.36,-4.09,-167.72,-11.49,151.30
28.057427,0.2383,-0.1880,-0.9634,-36.56,2.50,-5.86,-168.47,-11.56,151.38
28.057427,0.2549,-0.1675,-0.9717,-34.97,7.51,-8.18,-169.20,-11.68,151.48
28.087471,0.2114,-0.1899,-0.9570,-38.39,6.04,-12.27,-169.97,-11.88,151.64
28.087471,0.2222,-0.2505,-1.0244,-39.31,-4.64,-14.22,-170.82,-11.95,151.90
28.117515,0.2466,-0.2759,-1.0679,-34.61,-12.51,-15.62,-171.63,-11.82,152.23
28.117515,0.2734,-0.2148,-1.0254,-28.75,-11.54,-18.13,-172.34,-11.62,152.60
28.177424,0.2637,-0.0996,-0.9106,-28.81,0.67,-20.75,-172.99,-11.56,153.01
28.177424,0.2646,-0.0347,-0.8154,-35.10,18.43,-22.34,-173.72,-11.82,153.41
28.207723,0.2368,-0.0483,-0.8257,-40.77,29.97,-20.81,-174.57,-12.39,153.78
28.207723,0.2256,-0.1655,-0.9575,-35.22,24.17,-16.60,-175.42,-12.99,154.08
28.237433,0.2744,-0.2075,-1.0586,-18.62,15.50,-11.84,-176.02,-13.40,154.32
28.237433,0.2769,-0.0854,-0.9463,-9.03,16.54,-11.66,-176.31,-13.72,154.51
28.298584,0.2744,0.0195,-0.8564,-14.47,23.07,-13.85,-176.59,-14.14,154.73
28.298584,0.2915,-0.0005,-0.9189,-22.28,26.00,-12.82,-177.03,-14.67,154.96
28.327794,0.2651,-0.0620,-0.9634,-23.25,17.82,-10.50,-177.56,-15.14,155.15
28.327794,0.2114,-0.0903,-0.9634,-22.09,0.24,-11.11,-178.06,-15.34,155.35
28.375745,0.2100,-0.1025,-0.9453,-24.17,-17.21,-12.08,-178.59,-15.15,155.59
28.375745,0.2461,-0.1230,-0.9575,-28.14,-18.74,-12.70,-179.19,-14.78,155.86
28.417363,0.2412,-0.1309,-0.9941,-29.66,-14.53,-12.27,-179.85,-14.46,156.12
28.417363,0.2607,-0.1401,-0.9995,-27.47,-10.38,-9.89,179.52,-14.21,156.35
28.447980,0.2817,-0.1128,-0.9321,-25.02,1.59,-7.87,178.96,-14.11,156.52
28.447980,0.2705,-0.0620,-0.9087,-28.32,15.44,-7.14,178.39,-14.30,156.66
28.477401,0.2847,-0.0708,-0.9502,-31.43,25.88,-7.51,177.74,-14.73,156.80
28.477401,0.2949,-0.0615,-1.0210,-32.53,31.43,-7.02,177.06,-15.32,156.96
28.537523,0.3091,-0.0337,-1.0698,-39.00,24.90,-5.25,176.31,-15.88,157.09
28.537523,0.3354,-0.0508,-1.0791,-44.74,16.91,-2.75,175.44,-16.28,157.19
28.567512,0.3584,-0.0215,-1.0845,-50.54,14.28,0.37,174.48,-16.59,157.21
28.567512,0.3755,0.0161,-1.0024,-60.49,21.24,0.85,173.37,-16.93,157.22
28.598905,0.3726,0.0332,-0.9976,-71.96,28.14,2.32,172.03,-17.44,157.23
28.598905,0.4033,0.0728,-0.9883,-80.26,34.79,-0.55,170.49,-18.07,157.28
28.657427,0.3691,0.1250,-0.9258,-84.41,37.96,-4.33,168.77,-18.81,157.45
28.657427,0.2490,0.1387,-0.8403,-83.44,21.91,-5.00,167.01,-19.40,157.66
28.687435,0.1836,0.0986,-0.7153,-77.33,2.81,-3.91,165.34,-19.61,157.80
28.687435,0.2549,0.0527,-0.6880,-64.58,-4.70,-1.10,163.92,-19.53,157.83
28.717459,0.3491,0.1152,-0.8193,-48.95,0.55,0.98,162.80,-19.50,157.80
28.717459,0.4277,0.1738,-0.9033,-27.47,6.47,5.31,162.04,-19.59,157.76
28.777410,0.3667,0.2598,-0.8110,-11.66,2.81,10.01,161.73,-19.74,157.61
28.777410,0.3296,0.3179,-0.7686,-4.03,-2.62,10.38,161.67,-19.80,157.38
28.807777,0.3530,0.3633,-0.7993,-1.40,-4.15,8.30,161.70,-19.78,157.16
28.807777,0.3730,0.4028,-0.8335,1.59,-0.49,7.69,161.76,-19.78,156.97
28.867487,0.3550,0.4258,-0.8403,7.08,5.98,6.16,161.90,-19.87,156.83
28.867487,0.3638,0.3726,-0.8013,14.22,16.78,4.39,162.13,-20.11,156.78
28.897406,0.4404,0.2803,-0.7642,20.75,38.94,4.88,162.47,-20.67,156.85
28.897406,0.4321,0.2310,-0.7896,25.39,58.17,4.33,162.86,-21.67,157.03
28.927437,0.4033,0.2212,-0.8086,26.37,62.50,1.04,163.28,-22.88,157.32
28.927437,0.3945,0.2397,-0.8379,22.64,52.67,-3.05,163.63,-24.00,157.66
28.987437,0.3853,0.2930,-0.8696,15.93,35.10,-8.48,163.86,-24.82,158.02
28.987437,0.3916,0.3086,-0.8945,12.88,12.82,-14.10,163.97,-25.21,158.39
29.017581,0.4683,0.3345,-0.9023,11.41,-3.72,-17.46,164.06,-25.20,158.74
29.017581,0.5288,0.3770,-0.8887,3.97,-9.34,-21.91,164.06,-24.96,159.11
29.047448,0.5449,0.3745,-0.8916,-6.59,-6.41,-26.18,163.82,-24.68,159.58
29.047448,0.5083,0.3623,-0.9087,-11.72,-8.18,-26.31,163.40,-24.42,160.10
29.107828,0.4761,0.3774,-0.9819,-11.66,-23.50,-23.74,162.97,-23.99,160.54
29.107828,0.4297,0.3540,-1.0610,-4.21,-50.23,-18.31,162.71,-23.17,160.75
29.137612,0.3501,0.3638,-1.0405,1.59,-86.55,-12.76,162.75,-21.76,160.65
29.137612,0.2944,0.3560,-0.9492,-5.55,-120.79,-13.98,162.84,-19.64,160.29
29.167436,0.2715,0.2817,-0.9531,-14.10,-140.26,-18.80,162.77,-17.02,159.86
29.167436,0.2417,0.2266,-1.0410,-12.70,-153.32,-23.56,162.60,-14.05,159.43
29.227445,0.2139,0.1724,-0.9565,-3.60,-151.55,-25.39,162.53,-10.96,159.04
29.227445,0.1392,0.2007,-0.9048,0.06,-145.51,-25.82,162.58,-7.99,158.71
29.257440,0.0547,0.2139,-0.9268,-7.26,-150.02,-23.50,162.56,-5.02,158.37
29.257440,0.0615,0.1367,-1.0127,-14.83,-146.42,-21.79,162.35,-2.01,157.96
29.287458,0.0171,0.1108,-1.0542,-13.00,-120.06,-23.32,162.07,0.67,157.64
29.287458,-0.0205,0.1240,-0.9712,-9.64,-95.28,-22.64,161.85,2.84,157.46
29.347449,-0.0063,0.1592,-0.8989,-8.42,-69.34,-19.65,161.67,4.53,157.39
29.347449,-0.0161,0.2188,-0.8809,-9.77,-45.04,-15.38,161.49,5.70,157.39
29.394972,-0.0435,0.2651,-0.9668,-13.06,-31.25,-10.07,161.27,6.48,157.41
29.394972,-0.0713,0.2852,-1.0352,-15.32,-23.62,-4.03,160.98,7.03,157.37
29.407524,-0.0835,0.2764,-1.0010,-16.97,-18.01,1.46,160.64,7.43,157.25
29.407524,-0.1191,0.2773,-0.9497,-19.10,-12.94,4.52,160.26,7.69,157.09
29.467536,-0.1313,0.2847,-0.9575,-19.23,-14.28,6.04,159.85,7.91,156.88
29.467536,-0.1172,0.3081,-0.9868,-18.13,-12.51,5.62,159.45,8.12,156.68
29.498181,-0.1533,0.2964,-0.9780,-15.87,-14.77,5.00,159.09,8.33,156.48
29.498181,-0.1719,0.2622,-0.9414,-15.69,-21.42,5.37,158.75,8.64,156.25
29.527441,-0.1797,0.2378,-0.9121,-12.88,-25.70,4.76,158.42,9.05,155.98
29.527441,-0.2310,0.2090,-0.9189,-7.39,-32.90,4.76,158.18,9.56,155.68
29.587792,-0.2480,0.1782,-0.9092,-0.43,-44.01,5.19,158.05,10.26,155.30
29.587792,-0.2046,0.1929,-0.8628,5.55,-45.47,4.70,158.04,11.09,154.87
29.618336,-0.1748,0.2656,-0.8496,6.23,-37.54,3.97,158.10,11.84,154.48
29.618336,-0.1436,0.3354,-0.8931,5.74,-23.99,4.76,158.16,12.38,154.18
29.647434,-0.1489,0.3638,-0.9077,6.84,-12.08,7.20,158.24,12.66,153.93
29.647434,-0.1812,0.3936,-0.8862,7.26,-10.62,9.89,158.33,12.79,153.68
29.707778,-0.1353,0.3994,-0.8535,6.47,-9.70,10.93,158.42,12.92,153.40
29.707778,-0.1235,0.4155,-0.8672,4.76,-6.23,12.02,158.48,12.99,153.11
29.737577,-0.1743,0.4263,-0.8843,0.67,-8.67,13.06,158.47,13.02,152.81
29.737577,-0.2397,0.4219,-0.9189,-3.30,-19.53,12.45,158.37,13.19,152.46
29.767339,-0.2983,0.4033,-0.9385,-4.94,-32.53,9.77,158.19,13.61,152.05
29.767339,-0.2949,0.3745,-0.9146,-5.13,-37.72,6.16,158.00,14.24,151.63
29.827451,-0.2920,0.3701,-0.8975,-5.62,-33.26,5.13,157.81,14.87,151.25
29.827451,-0.3232,0.3755,-0.9058,-5.68,-28.63,5.43,157.62,15.40,150.92
29.857474,-0.3604,0.3726,-0.9033,-2.93,-28.99,5.37,157.44,15.89,150.60
29.857474,-0.3667,0.3608,-0.8696,1.53,-30.94,3.78,157.35,16.42,150.28
29.887661,-0.3872,0.3745,-0.8857,2.81,-34.97,2.69,157.31,17.01,149.95
29.887661,-0.3936,0.3677,-0.9219,3.60,-36.50,0.00,157.29,17.67,149.65
29.947417,-0.3735,0.3330,-0.9390,8.36,-33.69,-3.91,157.35,18.35,149.41
29.947417,-0.3926,0.3071,-0.9512,14.16,-30.03,-6.59,157.53,18.97,149.28
29.977450,-0.4009,0.2891,-0.9536,19.29,-31.07,-6.77,157.85,19.59,149.19
29.977450,-0.4526,0.3110,-0.9561,23.19,-40.47,-6.23,158.24,20.29,149.05
30.007795,-0.4634,0.3062,-0.9712,26.79,-53.34,-8.73,158.67,21.24,148.84
30.007795,-0.3594,0.2847,-0.9380,32.59,-56.52,-10.19,159.20,22.37,148.63
30.067762,-0.2656,0.2993,-0.8672,36.19,-44.25,-8.24,159.84,23.38,148.46
30.067762,-0.3330,0.3218,-0.8530,34.30,-38.70,-6.47,160.49,24.20,148.32
30.097455,-0.4473,0.3110,-0.9028,34.42,-39.31,-11.54,161.15,24.98,148.24
30.097455,-0.4014,0.3242,-0.9321,34.55,-38.88,-14.77,161.87,25.83,148.27
30.127449,-0.2603,0.3677,-0.9419,30.21,-23.99,-8.91,162.54,26.53,148.33
30.127449,-0.1709,0.4219,-0.9883,23.13,8.67,0.37,163.09,26.70,148.36
30.189125,-0.1289,0.4424,-1.0298,17.82,54.57,7.08,163.53,26.05,148.45
30.189125,-0.1655,0.3496,-1.0557,18.13,97.96,10.38,163.98,24.47,148.69
30.217457,-0.2563,0.2114,-1.0781,20.45,117.55,8.61,164.53,22.27,149.08
30.217457,-0.3066,0.0713,-1.1089,18.62,104.31,8.42,165.06,20.04,149.47
30.277476,-0.3740,0.0269,-1.1670,16.42,73.43,6.41,165.49,18.28,149.74
30.277476,-0.3560,0.0811,-1.1782,18.43,56.09,0.00,165.90,17.06,149.96
30.307815,-0.3550,0.1621,-1.1797,20.57,61.46,-8.30,166.39,15.94,150.30
30.307815,-0.3872,0.1494,-1.1177,22.95,60.73,-13.92,166.96,14.76,150.80
30.338393,-0.3647,0.1265,-1.0527,26.43,50.42,-15.14,167.58,13.74,151.32
30.338393,-0.3184,0.0752,-0.9902,28.81,49.19,-17.15,168.24,12.84,151.83
30.397483,-0.3120,0.0752,-0.9775,29.17,54.20,-17.64,168.94,11.88,152.36
30.397483,-0.3047,0.0566,-0.9512,26.73,61.10,-16.91,169.60,10.78,152.90
30.445869,-0.2988,0.0273,-0.9854,28.63,57.13,-15.93,170.23,9.65,153.40
30.445869,-0.2461,0.0283,-1.0903,33.94,55.36,-16.78,170.94,8.60,153.88
30.457268,-0.1626,0.0640,-1.1812,38.70,63.29,-15.08,171.73,7.47,154.35
30.457268,-0.0820,0.0562,-1.1338,45.41,74.52,-12.63,172.62,6.14,154.78
30.517571,0.0098,-0.0015,-1.0493,53.59,95.76,-10.01,173.65,4.46,155.17
30.517571,0.0781,-0.0596,-1.0547,60.18,127.20,-4.82,174.81,2.25,155.48
30.547456,0.0708,-0.0771,-1.1021,63.05,158.26,-2.69,176.06,-0.63,155.70
30.547456,0.0889,-0.0327,-1.1094,61.40,179.32,-1.34,177.30,-4.04,155.85
30.577488,0.1167,-0.0332,-1.1406,62.56,181.58,0.37,178.53,-7.67,155.90
30.577488,0.1157,-0.1118,-1.2490,67.93,170.47,3.05,179.86,-11.23,155.82
30.637566,0.2178,-0.2129,-1.2729,76.97,138.37,7.87,-178.63,-14.29,155.59
30.637566,0.3296,-0.2524,-1.1333,86.18,118.23,13.06,-176.87,-16.80,155.20
30.697635,0.3887,-0.2271,-1.0547,91.98,107.85,19.23,-174.90,-19.02,154.63
30.697635,0.3911,-0.1855,-1.0156,92.71,90.15,27.71,-172.75,-20.91,153.84
30.699845,0.5073,-0.2061,-0.8770,89.60,92.53,32.47,-170.55,-22.55,152.86
30.699845,0.6206,-0.1665,-0.9321,85.75,109.80,33.33,-168.30,-24.40,151.68
30.787761,0.6758,-0.1455,-0.9189,78.61,119.38,35.71,-166.05,-26.47,150.30
30.787761,0.6187,-0.1147,-0.8516,75.56,112.49,40.16,-163.76,-28.50,148.71
30.790114,0.6123,-0.0869,-0.7480,70.98,101.20,42.24,-161.42,-30.25,147.00
30.790114,0.5879,-0.1108,-0.7075,64.33,86.85,43.58,-159.16,-31.70,145.26
30.818719,0.5679,-0.1499,-0.6987,59.14,64.76,45.53,-157.01,-32.73,143.56
30.818719,0.5278,-0.2061,-0.6714,56.09,37.78,45.72,-155.01,-33.24,142.04
30.877823,0.4722,-0.2192,-0.6235,51.33,13.61,40.34,-153.25,-33.29,140.83
30.877823,0.4849,-0.1968,-0.5469,49.50,0.55,32.35,-151.79,-33.04,140.00
30.907840,0.7012,-0.2100,-0.7446,18.55,11.41,-3.72,-150.67,-32.84,139.52
30.907840,0.4531,-0.1470,-0.7329,-32.17,-10.19,-45.65,-151.21,-33.17,140.09
30.940290,0.4312,-0.4775,-0.5239,-38.45,-28.69,-48.22,-152.81,-33.30,141.46
30.940290,0.6465,-1.1279,-0.7109,24.90,46.75,-8.79,-153.14,-33.61,141.88
30.997509,0.3618,-0.8184,-0.8491,51.76,28.32,13.61,-152.02,-34.45,141.26
30.997509,0.4688,-0.4468,-0.7090,64.03,-27.95,27.65,-150.55,-34.16,140.82
31.027597,0.5371,-0.2856,-0.6187,62.50,-45.47,30.58,-149.21,-33.15,140.72
31.027597,0.5269,-0.2881,-0.5825,54.57,-34.24,26.18,-148.00,-32.17,140.66
31.057493,0.5317,-0.4038,-0.5815,48.16,-23.86,19.35,-146.94,-31.43,140.59
31.057493,0.5732,-0.4629,-0.5898,46.81,-11.35,11.84,-145.96,-30.97,140.52
31.119093,0.6284,-0.5059,-0.6138,44.49,-1.95,9.70,-144.98,-30.76,140.40
31.119093,0.7109,-0.5366,-0.6719,39.31,7.20,12.51,-144.01,-30.67,140.15
31.147463,0.7412,-0.6113,-0.7715,40.41,13.98,19.17,-142.99,-30.66,139.68
31.147463,0.7212,-0.6577,-0.7998,49.01,15.99,27.83,-141.75,-30.59,139.02
31.177494,0.6489,-0.6758,-0.7817,58.59,19.29,34.67,-140.23,-30.44,138.19
31.177494,0.5605,-0.6328,-0.7197,68.24,25.70,37.72,-138.44,-30.29,137.19
31.237466,0.4668,-0.5044,-0.5903,71.84,28.20,36.62,-136.47,-30.16,136.10
31.237466,0.4458,-0.4116,-0.4395,67.32,27.40,34.00,-134.52,-30.04,135.06
31.267475,0.3428,-0.3530,-0.1865,50.78,27.16,27.53,-132.84,-29.95,134.09
31.267475,0.4316,-0.5830,-0.3003,30.82,23.80,22.71,-131.64,-29.93,133.27
31.297505,0.4609,-0.5928,-0.4995,30.03,17.82,28.38,-130.67,-29.79,132.51
31.297505,0.4355,-0.5830,-0.4404,32.53,14.77,29.91,-129.67,-29.53,131.79
31.357513,0.4790,-0.5874,-0.4175,31.01,12.08,32.90,-128.68,-29.20,131.08
31.357513,0.4990,-0.5811,-0.3872,27.16,10.50,34.48,-127.75,-28.78,130.40
31.387602,0.5151,-0.6235,-0.3984,24.11,13.37,36.19,-126.90,-28.35,129.69
31.387602,0.4639,-0.6792,-0.3931,25.39,14.89,35.58,-126.05,-27.93,128.94
31.417511,0.4419,-0.6953,-0.4033,27.77,15.14,32.65,-125.17,-27.53,128.21
31.417511,0.4556,-0.6914,-0.3882,28.87,17.03,30.27,-124.27,-27.18,127.51
31.477332,0.4487,-0.7070,-0.3657,29.72,18.07,29.60,-123.35,-26.87,126.79
31.477332,0.4385,-0.7256,-0.3521,29.60,16.11,29.79,-122.44,-26.54,126.11
31.507664,0.4170,-0.7646,-0.3491,28.99,13.12,29.60,-121.56,-26.17,125.47
31.507664,0.4175,-0.7720,-0.3462,27.22,12.02,29.30,-120.73,-25.78,124.89
31.537348,0.4229,-0.7920,-0.3467,26.67,10.25,29.91,-119.95,-25.38,124.34
31.537348,0.4346,-0.8052,-0.3364,26.12,8.42,31.37,-119.20,-24.92,123.83
31.597532,0.4551,-0.8286,-0.3086,23.80,6.41,34.48,-118.49,-24.41,123.33
31.597532,0.4102,-0.8618,-0.2896,21.18,2.62,38.09,-117.84,-23.80,122.87
31.627460,0.3564,-0.8647,-0.2954,19.96,-5.13,39.00,-117.29,-23.09,122.50
31.627460,0.3545,-0.8462,-0.3037,21.42,-12.15,38.94,-116.80,-22.30,122.31
31.687616,0.3975,-0.8306,-0.3003,23.38,-14.95,41.38,-116.31,-21.46,122.20
31.687616,0.3638,-0.7822,-0.2466,21.67,-14.89,43.46,-115.81,-20.56,122.10
31.717543,0.3594,-0.7783,-0.2427,18.86,-15.38,44.01,-115.37,-19.64,121.99
31.717543,0.3516,-0.8179,-0.2632,18.13,-24.48,44.86,-115.00,-18.67,121.98
31.747514,0.3477,-0.8369,-0.2603,18.19,-35.77,44.49,-114.70,-17.59,122.19
31.747514,0.4131,-0.8262,-0.2754,14.65,-35.71,40.65,-114.47,-16.52,122.54
31.807798,0.4541,-0.8530,-0.3232,8.48,-18.37,37.29,-114.30,-15.60,122.74
31.807798,0.4141,-0.9004,-0.3062,2.14,4.03,36.93,-114.14,-14.86,122.55
31.837898,0.3384,-0.9634,-0.2725,-2.38,16.48,39.79,-114.00,-14.25,122.01
31.837898,0.2251,-0.9824,-0.3340,-4.03,18.49,39.73,-113.90,-13.65,121.33
31.867484,0.1362,-0.8584,-0.4121,-4.58,11.78,39.86,-113.85,-13.01,120.72
31.867484,0.0361,-0.7368,-0.4463,3.66,15.38,27.77,-113.73,-12.49,120.18
31.927513,0.1055,-0.6875,-0.3701,8.79,11.72,23.74,-113.48,-12.15,119.71
31.927513,0.1055,-0.6978,-0.3823,9.64,2.32,25.09,-113.22,-11.73,119.38
31.957625,0.1006,-0.7446,-0.4106,10.19,-2.26,22.77,-112.98,-11.28,119.19
31.957625,0.0811,-0.8320,-0.4126,9.28,-2.38,17.64,-112.76,-10.88,119.08
31.987638,0.1162,-0.8726,-0.4136,5.92,3.11,11.41,-112.58,-10.61,118.96
31.987638,0.1240,-0.8872,-0.4097,2.26,10.25,8.18,-112.46,-10.49,118.73
32.047511,0.1216,-0.9004,-0.4087,0.00,12.76,5.19,-112.37,-10.45,118.44
32.047511,0.1318,-0.9092,-0.3960,-2.56,12.76,2.75,-112.35,-10.46,118.16
32.077367,0.1338,-0.9160,-0.3989,-5.25,11.96,3.17,-112.37,-10.50,117.89
32.077367,0.1064,-0.9028,-0.4038,-7.87,7.32,5.31,-112.46,-10.49,117.65
32.108978,0.1035,-0.9165,-0.3711,-11.41,-1.77,9.03,-112.63,-10.38,117.54
32.108978,0.1216,-0.9355,-0.4014,-16.17,-10.07,16.78,-112.91,-10.10,117.54
32.167866,0.0771,-0.8428,-0.4253,-16.24,-11.47,19.59,-113.25,-9.65,117.60
32.167866,0.0801,-0.8320,-0.4346,-12.76,-7.51,18.25,-113.54,-9.23,117.62
32.197570,0.1045,-0.8496,-0.4185,-9.77,-5.62,20.39,-113.76,-8.83,117.58
32.197570,0.1045,-0.8853,-0.4468,-7.93,-5.49,23.99,-113.92,-8.38,117.49
32.227552,0.0762,-0.8828,-0.4062,-5.43,-7.08,27.95,-114.03,-7.84,117.39
32.227552,0.0522,-0.9126,-0.3975,-5.55,-10.07,30.40,-114.13,-7.23,117.31
32.287580,0.0303,-0.9185,-0.4092,-4.21,-16.17,33.20,-114.23,-6.54,117.29
32.287580,0.0332,-0.9092,-0.3989,-0.79,-19.41,35.10,-114.29,-5.76,117.35
32.317521,0.0483,-0.8843,-0.3652,0.92,-16.48,35.03,-114.29,-4.96,117.41
32.317521,0.0020,-0.9214,-0.3682,0.67,-13.37,33.81,-114.26,-4.21,117.38
32.347541,-0.0386,-0.9766,-0.3452,-0.73,-17.52,29.79,-114.26,-3.50,117.41
32.347541,-0.0205,-0.9038,-0.4033,-0.92,-16.78,22.95,-114.30,-2.87,117.52
32.407971,0.0635,-0.8091,-0.3433,-0.18,-7.57,16.11,-114.30,-2.42,117.59
32.407971,0.0723,-0.8291,-0.3335,-1.34,2.01,13.67,-114.31,-2.14,117.50
32.438435,0.0181,-0.8696,-0.3257,-2.44,3.05,14.77,-114.34,-1.90,117.31
32.438435,-0.0415,-0.8774,-0.3330,-5.55,-1.65,14.16,-114.41,-1.63,117.16
32.488697,-0.0708,-0.8867,-0.3579,-7.63,-8.48,10.68,-114.54,-1.35,117.15
32.488697,-0.0283,-0.8721,-0.3623,-8.06,-15.14,7.51,-114.71,-1.09,117.28
32.528149,0.0083,-0.8760,-0.3628,-8.54,-18.74,6.23,-114.88,-0.82,117.54
32.528149,0.0142,-0.8784,-0.3516,-9.95,-16.66,5.37,-115.07,-0.57,117.81
32.557553,0.0142,-0.8999,-0.3677,-10.68,-12.94,4.52,-115.28,-0.36,118.02
32.557553,-0.0059,-0.9341,-0.3809,-9.52,-13.55,4.39,-115.49,-0.17,118.21
32.588357,-0.0200,-0.9697,-0.4009,-5.49,-17.09,4.03,-115.64,0.03,118.44
32.588357,-0.0298,-0.9883,-0.4150,-1.10,-21.18,3.60,-115.71,0.26,118.74
32.648291,-0.0083,-0.9707,-0.4014,2.14,-23.74,2.69,-115.69,0.51,119.12
32.648291,0.0171,-0.9385,-0.3555,1.16,-20.39,1.95,-115.65,0.74,119.50
32.677552,0.0400,-0.9136,-0.3672,-0.55,-12.76,2.20,-115.64,0.91,119.77
32.677552,0.0288,-0.9131,-0.3765,-0.92,-7.20,4.15,-115.66,1.05,119.90
32.708570,-0.0308,-0.9263,-0.3813,-0.61,-7.08,5.55,-115.67,1.20,119.97
32.708570,-0.0449,-0.9375,-0.3984,0.61,-9.77,5.86,-115.67,1.38,120.06
32.768274,-0.0283,-0.9487,-0.4204,2.26,-12.27,6.96,-115.63,1.59,120.20
32.768274,-0.0361,-0.9321,-0.3613,1.77,-13.55,7.39,-115.58,1.83,120.36
32.797610,-0.0293,-0.9263,-0.3740,-0.73,-12.94,6.65,-115.57,2.07,120.53
32.797610,-0.0234,-0.9370,-0.4004,-2.32,-12.70,4.76,-115.59,2.29,120.71
32.828259,-0.0068,-0.9517,-0.4067,-4.09,-13.06,2.20,-115.65,2.46,120.89
32.828259,-0.0024,-0.9575,-0.3999,-5.68,-12.88,-0.18,-115.74,2.59,121.11
32.888389,-0.0225,-0.9570,-0.3940,-7.14,-10.68,-2.56,-115.86,2.66,121.33
32.888389,-0.0376,-0.9419,-0.3892,-6.84,-8.42,-4.33,-115.99,2.68,121.52
32.917566,-0.0293,-0.9268,-0.3916,-5.98,-7.02,-4.52,-116.11,2.65,121.68
32.917566,-0.0200,-0.9229,-0.3965,-4.94,-5.80,-2.99,-116.21,2.64,121.82
32.948257,-0.0366,-0.9126,-0.4077,-3.48,-5.49,-1.16,-116.28,2.65,121.92
32.948257,-0.0454,-0.9053,-0.4131,-1.34,-5.43,0.24,-116.32,2.70,122.01
33.008839,-0.0293,-0.9092,-0.4072,0.00,-5.13,1.04,-116.33,2.76,122.09
33.008839,-0.0151,-0.9243,-0.3994,0.73,-3.60,1.28,-116.31,2.82,122.14
33.038375,-0.0083,-0.9424,-0.4097,0.31,-1.10,1.22,-116.30,2.86,122.16
33.038375,-0.0024,-0.9429,-0.4087,-0.49,1.10,0.67,-116.30,2.88,122.14
33.098349,-0.0039,-0.9429,-0.3955,-2.01,3.60,0.98,-116.32,2.88,122.07
33.098349,-0.0327,-0.9336,-0.4038,-3.23,4.88,1.28,-116.38,2.87,121.97
33.127583,-0.0513,-0.9263,-0.4121,-2.75,4.58,1.22,-116.44,2.85,121.85
33.127583,-0.0381,-0.9238,-0.4072,-2.14,3.78,1.89,-116.49,2.85,121.76
33.158498,-0.0356,-0.9365,-0.4131,-1.65,3.48,3.54,-116.53,2.87,121.65
33.158498,-0.0498,-0.9390,-0.4077,-1.22,2.75,4.70,-116.55,2.92,121.55
33.218722,-0.0352,-0.9307,-0.4141,-1.34,2.50,5.68,-116.58,2.99,121.44
33.218722,-0.0400,-0.9321,-0.4155,-0.73,2.56,6.96,-116.60,3.09,121.33
33.247505,-0.0352,-0.9326,-0.4155,-0.24,2.50,8.06,-116.61,3.21,121.20
33.247505,-0.0454,-0.9458,-0.4194,-0.06,2.26,9.03,-116.62,3.35,121.07
33.278265,-0.0664,-0.9648,-0.4316,1.53,1.71,9.64,-116.61,3.50,120.94
33.278265,-0.0669,-0.9629,-0.4307,4.33,0.24,9.95,-116.55,3.67,120.83
33.338617,-0.0830,-0.9458,-0.4009,4.58,-0.06,8.79,-116.46,3.85,120.74
33.338617,-0.0635,-0.9473,-0.4355,6.04,0.37,7.81,-116.36,4.00,120.65
33.367559,-0.0664,-0.9722,-0.4312,8.48,0.55,7.69,-116.21,4.14,120.56
33.367559,-0.0923,-0.9956,-0.4238,11.23,0.06,7.69,-116.01,4.28,120.48
33.398292,-0.1045,-0.9980,-0.4102,13.37,-0.98,7.57,-115.76,4.42,120.42
33.398292,-0.1050,-0.9932,-0.4019,15.75,-2.69,7.39,-115.47,4.58,120.38
33.458234,-0.0928,-0.9839,-0.3862,17.27,-4.70,7.32,-115.13,4.75,120.38
33.458234,-0.0688,-0.9810,-0.3950,18.49,-4.82,6.84,-114.77,4.92,120.40
33.495764,-0.0371,-0.9824,-0.3799,19.71,-1.83,6.84,-114.38,5.08,120.40
33.495764,-0.0337,-0.9810,-0.3740,21.30,1.65,6.23,-113.97,5.20,120.33
33.518079,-0.0420,-0.9771,-0.3584,22.34,4.70,5.62,-113.53,5.28,120.22
33.518079,-0.0532,-0.9707,-0.3613,24.11,7.14,4.15,-113.08,5.33,120.06
33.578352,-0.0488,-0.9761,-0.3447,25.70,9.16,3.23,-112.59,5.34,119.87
33.578352,-0.0532,-0.9785,-0.3433,27.22,10.38,3.11,-112.07,5.33,119.65
33.608172,-0.0762,-0.9854,-0.3340,29.60,10.80,2.75,-111.52,5.32,119.42
33.608172,-0.0718,-0.9761,-0.3208,31.43,11.05,1.34,-110.92,5.28,119.19
33.639057,-0.0532,-0.9629,-0.2964,31.86,12.51,0.61,-110.30,5.23,118.94
33.639057,-0.0532,-0.9712,-0.2881,32.65,14.22,0.85,-109.67,5.16,118.67
33.698367,-0.0479,-0.9746,-0.2852,33.63,15.62,2.08,-109.02,5.10,118.37
33.698367,-0.0952,-0.9829,-0.2881,35.28,15.44,3.11,-108.35,5.06,118.04
