t,ax,ay,az,gx,gy,gz,wx,wy,wz
-0.000526,-0.0132,0.1060,0.9966,0.00,0.00,-0.12,4.61,1.52,48.66
-0.000526,-0.0132,0.1060,0.9976,0.00,0.00,-0.06,4.61,1.52,48.66
-0.000501,-0.0127,0.1060,0.9976,0.00,0.00,-0.12,4.61,1.52,48.66
-0.000501,-0.0127,0.1050,0.9980,0.00,0.00,-0.06,4.61,1.52,48.66
0.043254,-0.0142,0.1060,0.9976,0.00,0.00,-0.06,4.61,1.52,48.66
0.043254,-0.0142,0.1060,0.9980,0.00,0.00,-0.12,4.61,1.52,48.66
0.061973,-0.0127,0.1060,0.9980,0.00,0.00,0.00,4.61,1.52,48.66
0.061973,-0.0132,0.1055,0.9971,-0.06,0.00,-0.12,4.61,1.52,48.66
0.092643,-0.0127,0.1055,0.9971,-0.06,0.00,-0.06,4.61,1.52,48.66
0.092643,-0.0122,0.1064,0.9966,-0.06,0.00,-0.06,4.61,1.52,48.66
0.121395,-0.0127,0.1055,0.9971,0.00,0.00,-0.12,4.61,1.52,48.66
0.121395,-0.0132,0.1069,0.9976,0.00,0.00,-0.06,4.61,1.52,48.66
0.182313,-0.0127,0.1064,0.9985,-0.06,0.00,-0.06,4.61,1.52,48.66
0.182313,-0.0127,0.1055,0.9976,-0.06,0.00,-0.12,4.61,1.52,48.66
0.211470,-0.0122,0.1060,0.9976,-0.06,0.00,-0.12,4.61,1.52,48.66
0.211470,-0.0122,0.1064,0.9980,0.00,0.00,-0.12,4.61,1.52,48.66
0.242366,-0.0132,0.1060,0.9976,-0.06,0.00,-0.12,4.61,1.52,48.66
0.242366,-0.0122,0.1055,0.9980,0.00,0.00,-0.12,4.61,1.52,48.66
0.302538,-0.0122,0.1064,0.9985,0.00,0.00,-0.12,4.61,1.52,48.66
0.302538,-0.0127,0.1055,0.9980,0.00,0.00,-0.12,4.61,1.52,48.66
0.331848,-0.0122,0.1064,0.9980,0.00,0.00,-0.06,4.61,1.52,48.66
0.331848,-0.0122,0.1060,0.9985,0.00,0.00,-0.12,4.61,1.52,48.66
0.362349,-0.0137,0.1064,0.9976,0.00,0.00,-0.06,4.61,1.52,48.66
0.362349,-0.0132,0.1050,0.9976,0.00,0.00,-0.06,4.61,1.52,48.66
0.433033,-0.0127,0.1060,0.9976,-0.06,0.00,-0.12,4.61,1.52,48.66
0.433033,-0.0137,0.1060,0.9971,0.00,0.00,-0.12,4.61,1.52,48.66
0.451528,-0.0137,0.1060,0.9980,0.00,0.00,-0.06,4.61,1.52,48.66
0.451528,-0.0122,0.1050,0.9971,0.00,0.00,-0.06,4.61,1.52,48.66
0.482349,-0.0142,0.1060,0.9971,0.00,0.00,-0.06,4.61,1.52,48.66
0.482349,-0.0137,0.1060,0.9976,0.00,0.00,-0.12,4.61,1.52,48.66
0.542445,-0.0127,0.1055,0.9976,0.00,0.00,-0.06,4.61,1.52,48.66
0.542445,-0.0132,0.1060,0.9976,0.00,0.00,-0.12,4.61,1.52,48.66
0.571718,-0.0132,0.1055,0.9976,-0.06,0.00,-0.06,4.61,1.52,48.66
0.571718,-0.0127,0.1055,0.9976,0.00,0.00,-0.12,4.61,1.52,48.66
0.628910,-0.0127,0.1060,0.9976,0.00,0.00,-0.06,4.61,1.52,48.66
0.628910,-0.0127,0.1060,0.9976,0.00,0.00,0.00,4.61,1.52,48.66
0.662352,-0.0127,0.1050,0.9976,-0.06,0.00,-0.12,4.61,1.52,48.66
0.662352,-0.0132,0.1064,0.9980,0.00,0.00,-0.06,4.61,1.52,48.66
0.691551,-0.0127,0.1050,0.9971,-0.06,0.00,-0.12,4.61,1.52,48.66
0.691551,-0.0122,0.1050,0.9980,0.00,0.00,-0.06,4.61,1.52,48.66
0.722375,-0.0132,0.1064,0.9976,0.00,0.00,0.00,4.61,1.52,48.66
0.722375,-0.0132,0.1045,0.9985,0.00,0.00,-0.06,4.61,1.52,48.66
0.782354,-0.0127,0.1064,0.9985,0.00,0.00,-0.06,4.61,1.52,48.66
0.782354,-0.0137,0.1060,0.9980,0.00,0.00,-0.12,4.61,1.52,48.66
0.811629,-0.0127,0.1050,0.9976,0.00,0.00,-0.12,4.61,1.52,48.66
0.811629,-0.0127,0.1060,0.9966,0.00,0.00,-0.06,4.61,1.52,48.66
0.842334,-0.0127,0.1060,0.9980,-0.06,0.06,-0.06,4.61,1.52,48.66
0.842334,-0.0132,0.1060,0.9976,0.00,0.00,-0.12,4.61,1.52,48.66
0.902365,-0.0127,0.1055,0.9976,0.00,0.00,-0.06,4.61,1.52,48.66
0.902365,-0.0132,0.1060,0.9976,-0.06,0.00,-0.06,4.61,1.52,48.66
0.932712,-0.0132,0.1060,0.9976,0.00,0.00,-0.12,4.61,1.52,48.66
0.932712,-0.0127,0.1064,0.9971,0.00,0.00,-0.06,4.61,1.52,48.66
0.964407,-0.0142,0.1060,0.9971,0.00,0.00,-0.06,4.61,1.52,48.66
0.964407,-0.0127,0.1055,0.9966,0.00,0.00,0.00,4.61,1.52,48.66
1.046045,-0.0137,0.1064,0.9961,0.00,0.00,-0.12,4.61,1.52,48.66
1.046045,-0.0132,0.1060,0.9976,0.00,0.00,-0.12,4.61,1.52,48.66
1.052854,-0.0127,0.1064,0.9980,0.00,0.00,-0.12,4.61,1.52,48.66
1.052854,-0.0132,0.1055,0.9976,0.00,0.00,-0.06,4.61,1.53,48.66
1.083924,-0.0132,0.1064,0.9976,0.00,0.00,-0.12,4.61,1.53,48.67
1.083924,-0.0137,0.1060,0.9976,0.00,0.00,-0.12,4.61,1.53,48.67
1.145036,-0.0122,0.1060,0.9976,-0.06,0.00,-0.12,4.61,1.53,48.67
1.145036,-0.0132,0.1050,0.9980,0.00,0.00,-0.12,4.61,1.53,48.67
1.174212,-0.0127,0.1064,0.9980,0.00,0.00,-0.12,4.61,1.53,48.67
1.174212,-0.0127,0.1060,0.9980,0.00,0.00,-0.06,4.61,1.53,48.67
1.232351,-0.0122,0.1060,0.9980,0.00,0.00,-0.18,4.61,1.53,48.67
1.232351,-0.0137,0.1050,0.9971,0.00,0.00,-0.12,4.61,1.53,48.67
1.261495,-0.0127,0.1050,0.9976,0.00,0.00,-0.06,4.61,1.53,48.67
1.261495,-0.0127,0.1064,0.9980,0.00,0.00,0.00,4.61,1.53,48.67
1.292322,-0.0132,0.1060,0.9976,-0.06,0.00,-0.12,4.61,1.53,48.67
1.292322,-0.0127,0.1060,0.9966,0.00,0.00,-0.06,4.61,1.53,48.67
1.352677,-0.0132,0.1050,0.9985,-0.06,0.06,-0.06,4.61,1.53,48.67
1.352677,-0.0137,0.1055,0.9976,-0.06,0.00,-0.12,4.61,1.53,48.67
1.381523,-0.0127,0.1055,0.9976,0.00,0.00,-0.06,4.61,1.53,48.67
1.381523,-0.0127,0.1060,0.9985,-0.06,0.00,-0.06,4.61,1.53,48.67
1.412283,-0.0127,0.1055,0.9980,0.00,0.00,0.00,4.61,1.53,48.67
1.412283,-0.0127,0.1064,0.9971,0.00,0.06,-0.12,4.61,1.53,48.67
1.472330,-0.0127,0.1060,0.9971,0.00,0.00,-0.06,4.61,1.53,48.67
1.472330,-0.0127,0.1055,0.9980,0.00,0.00,-0.12,4.61,1.53,48.67
1.501450,-0.0127,0.1060,0.9980,-0.06,0.00,-0.12,4.61,1.53,48.67
1.501450,-0.0127,0.1055,0.9980,0.00,0.00,-0.12,4.61,1.53,48.67
1.532283,-0.0127,0.1064,0.9971,0.00,0.00,-0.12,4.61,1.53,48.67
1.532283,-0.0127,0.1050,0.9976,0.00,0.00,-0.12,4.61,1.53,48.67
1.592335,-0.0127,0.1060,0.9980,0.00,0.00,-0.12,4.61,1.53,48.67
1.592335,-0.0132,0.1064,0.9976,0.00,0.00,-0.12,4.61,1.53,48.67
1.652034,-0.0122,0.1060,0.9980,-0.06,0.00,-0.12,4.61,1.53,48.67
1.652034,-0.0137,0.1060,0.9976,0.00,0.00,-0.12,4.61,1.53,48.67
1.652392,-0.0132,0.1060,0.9980,0.00,0.00,-0.06,4.61,1.53,48.67
1.652392,-0.0127,0.1060,0.9971,0.00,0.00,-0.12,4.61,1.53,48.67
1.712234,-0.0132,0.1055,0.9961,0.00,0.00,-0.12,4.61,1.53,48.67
1.712234,-0.0122,0.1060,0.9971,0.00,0.00,0.00,4.61,1.53,48.67
1.744583,-0.0132,0.1064,0.9976,-0.06,0.00,-0.06,4.61,1.53,48.67
1.744583,-0.0132,0.1045,0.9985,0.00,0.00,-0.06,4.61,1.53,48.67
1.771724,-0.0122,0.1060,0.9980,0.00,0.00,-0.06,4.61,1.53,48.67
1.771724,-0.0132,0.1060,0.9980,0.00,0.00,-0.06,4.61,1.53,48.67
1.832457,-0.0122,0.1060,0.9976,0.00,0.00,-0.06,4.61,1.53,48.67
1.832457,-0.0122,0.1050,0.9980,0.00,0.00,-0.06,4.61,1.53,48.67
1.861493,-0.0127,0.1060,0.9980,0.00,0.00,-0.06,4.61,1.53,48.67
1.861493,-0.0127,0.1060,0.9976,-0.06,0.00,-0.12,4.61,1.53,48.67
1.892353,-0.0117,0.1055,0.9976,0.00,-0.06,-0.12,4.61,1.53,48.67
1.892353,-0.0127,0.1055,0.9976,0.00,0.00,-0.12,4.61,1.53,48.67
1.952319,-0.0122,0.1060,0.9980,0.00,0.00,-0.06,4.61,1.53,48.67
1.952319,-0.0127,0.1055,0.9990,0.00,0.00,-0.12,4.61,1.52,48.67
1.981606,-0.0127,0.1064,0.9985,0.00,0.00,-0.06,4.61,1.52,48.67
1.981606,-0.0132,0.1060,0.9980,0.00,0.00,-0.12,4.61,1.52,48.67
2.012322,-0.0132,0.1064,0.9985,0.00,0.00,-0.18,4.61,1.52,48.67
2.012322,-0.0127,0.1064,0.9971,0.00,0.00,-0.12,4.61,1.52,48.67
2.072419,-0.0132,0.1064,0.9976,0.00,0.00,-0.12,4.61,1.52,48.67
2.072419,-0.0122,0.1055,0.9976,0.00,0.00,0.00,4.61,1.52,48.67
2.102281,-0.0132,0.1060,0.9976,0.00,0.00,-0.12,4.61,1.52,48.67
2.102281,-0.0127,0.1055,0.9980,0.00,0.00,-0.12,4.61,1.52,48.67
2.131536,-0.0127,0.1060,0.9980,-0.06,0.00,-0.12,4.61,1.52,48.67
2.131536,-0.0122,0.1060,0.9976,0.00,0.00,-0.12,4.61,1.52,48.67
2.192387,-0.0122,0.1055,0.9971,-0.06,0.00,-0.12,4.61,1.52,48.67
2.192387,-0.0122,0.1069,0.9966,0.00,0.00,-0.06,4.61,1.52,48.67
2.221688,-0.0132,0.1060,0.9976,0.00,0.00,-0.12,4.61,1.52,48.67
2.221688,-0.0127,0.1064,0.9980,0.00,0.00,-0.12,4.61,1.52,48.67
2.252365,-0.0127,0.1060,0.9966,0.00,0.00,0.00,4.61,1.52,48.67
2.252365,-0.0132,0.1064,0.9976,-0.06,0.00,-0.06,4.61,1.52,48.67
2.312329,-0.0132,0.1064,0.9976,-0.06,0.00,-0.06,4.61,1.52,48.67
2.312329,-0.0137,0.1055,0.9976,0.00,0.00,-0.12,4.61,1.52,48.67
2.342583,-0.0137,0.1050,0.9985,0.00,0.00,0.00,4.61,1.52,48.67
2.342583,-0.0132,0.1064,0.9971,0.00,0.00,-0.06,4.61,1.52,48.67
2.371557,-0.0132,0.1064,0.9985,0.00,0.00,-0.06,4.61,1.52,48.67
2.371557,-0.0127,0.1064,0.9980,0.00,0.00,-0.12,4.61,1.52,48.67
2.432313,-0.0132,0.1060,0.9980,-0.06,0.00,-0.12,4.61,1.52,48.67
2.432313,-0.0137,0.1064,0.9976,-0.06,0.00,-0.12,4.61,1.52,48.67
2.461633,-0.0127,0.1060,0.9971,0.00,0.00,-0.06,4.61,1.52,48.67
2.461633,-0.0127,0.1064,0.9976,0.00,0.00,-0.12,4.61,1.52,48.67
2.492325,-0.0137,0.1060,0.9980,-0.06,0.00,0.00,4.61,1.52,48.67
2.492325,-0.0132,0.1055,0.9976,0.00,0.00,-0.06,4.61,1.52,48.67
2.552326,-0.0132,0.1055,0.9971,0.00,0.00,-0.12,4.61,1.52,48.67
2.552326,-0.0122,0.1050,0.9976,0.00,0.00,-0.06,4.61,1.52,48.67
2.581518,-0.0132,0.1060,0.9976,0.00,0.00,-0.06,4.61,1.52,48.67
2.581518,-0.0127,0.1064,0.9985,0.00,0.00,-0.12,4.61,1.52,48.67
2.642585,-0.0127,0.1050,0.9980,-0.06,0.00,-0.06,4.61,1.52,48.67
2.642585,-0.0122,0.1060,0.9971,0.00,0.00,-0.12,4.61,1.52,48.67
2.703703,-0.0127,0.1060,0.9976,0.00,0.00,-0.06,4.61,1.52,48.67
2.703703,-0.0117,0.1055,0.9971,-0.06,0.00,0.00,4.61,1.52,48.67
2.703725,-0.0127,0.1055,0.9976,-0.06,0.00,-0.12,4.61,1.52,48.67
2.703725,-0.0132,0.1060,0.9976,0.00,0.00,-0.12,4.61,1.52,48.67
2.762355,-0.0137,0.1055,0.9980,-0.06,0.00,-0.12,4.61,1.52,48.67
2.762355,-0.0127,0.1055,0.9976,-0.06,0.00,-0.12,4.61,1.52,48.67
2.791652,-0.0127,0.1060,0.9976,0.00,0.00,-0.12,4.61,1.52,48.67
2.791652,-0.0122,0.1064,0.9985,0.00,0.00,-0.06,4.61,1.52,48.67
2.822374,-0.0127,0.1055,0.9985,-0.06,0.00,-0.06,4.61,1.52,48.67
2.822374,-0.0137,0.1055,0.9976,0.00,0.00,-0.06,4.61,1.52,48.67
2.882356,-0.0132,0.1060,0.9971,0.00,0.00,-0.12,4.61,1.52,48.67
2.882356,-0.0132,0.1050,0.9976,0.00,0.00,-0.12,4.61,1.52,48.67
2.911684,-0.0132,0.1055,0.9980,0.00,0.00,-0.12,4.61,1.52,48.67
2.911684,-0.0132,0.1055,0.9976,0.00,0.00,-0.12,4.61,1.52,48.67
2.944609,-0.0122,0.1064,0.9985,0.00,0.00,-0.06,4.61,1.52,48.67
2.944609,-0.0127,0.1064,0.9985,0.00,0.00,-0.06,4.61,1.52,48.67
3.002527,-0.0122,0.1064,0.9985,0.00,0.00,-0.06,4.61,1.52,48.67
3.002527,-0.0137,0.1064,0.9980,0.00,0.00,-0.12,4.61,1.52,48.67
3.031576,-0.0132,0.1060,0.9980,-0.06,0.00,-0.06,4.61,1.52,48.67
3.031576,-0.0127,0.1050,0.9980,0.00,0.00,-0.12,4.61,1.52,48.67
3.062520,-0.0132,0.1060,0.9980,0.00,0.00,-0.12,4.61,1.52,48.67
3.062520,-0.0137,0.1055,0.9976,0.00,0.00,-0.06,4.61,1.52,48.67
3.122408,-0.0132,0.1060,0.9985,0.00,0.00,-0.12,4.61,1.52,48.67
3.122408,-0.0132,0.1055,0.9985,-0.06,0.00,-0.06,4.61,1.52,48.67
3.151601,-0.0127,0.1055,0.9976,-0.06,0.00,-0.12,4.61,1.53,48.67
3.151601,-0.0127,0.1060,0.9980,0.00,0.00,-0.12,4.61,1.53,48.67
3.182286,-0.0122,0.1055,0.9976,0.00,0.00,-0.06,4.61,1.53,48.67
3.182286,-0.0127,0.1064,0.9976,0.00,0.00,-0.06,4.61,1.53,48.67
3.242953,-0.0137,0.1060,0.9966,0.00,0.00,-0.18,4.61,1.52,48.67
3.242953,-0.0132,0.1060,0.9966,0.00,0.00,-0.06,4.61,1.52,48.67
3.271591,-0.0122,0.1060,0.9976,0.00,0.00,-0.12,4.61,1.52,48.67
3.271591,-0.0132,0.1064,0.9971,0.00,0.00,-0.12,4.61,1.52,48.67
3.302462,-0.0137,0.1069,0.9976,0.00,0.00,-0.06,4.61,1.52,48.67
3.302462,-0.0132,0.1055,0.9971,0.00,0.00,-0.12,4.61,1.52,48.67
3.362377,-0.0132,0.1055,0.9976,0.00,0.00,-0.06,4.61,1.52,48.67
3.362377,-0.0127,0.1064,0.9976,-0.06,0.00,-0.12,4.61,1.53,48.67
3.391704,-0.0137,0.1055,0.9980,-0.06,0.00,-0.06,4.61,1.53,48.67
3.391704,-0.0132,0.1064,0.9980,0.00,0.00,-0.06,4.61,1.53,48.67
3.422397,-0.0132,0.1060,0.9976,0.00,0.00,-0.06,4.61,1.53,48.67
3.422397,-0.0137,0.1060,0.9966,0.00,0.00,-0.12,4.61,1.53,48.67
3.482413,-0.0137,0.1069,0.9985,0.00,0.00,-0.06,4.61,1.53,48.67
3.482413,-0.0132,0.1064,0.9971,0.00,0.00,-0.12,4.61,1.53,48.67
3.511584,-0.0127,0.1055,0.9966,-0.06,0.00,-0.12,4.61,1.53,48.67
3.511584,-0.0137,0.1060,0.9961,-0.06,0.00,-0.12,4.61,1.53,48.67
3.543095,-0.0132,0.1060,0.9976,0.00,0.00,-0.06,4.61,1.53,48.67
3.543095,-0.0127,0.1060,0.9976,0.00,0.06,-0.12,4.61,1.53,48.67
3.604435,-0.0127,0.1064,0.9966,0.00,0.00,-0.06,4.61,1.53,48.67
3.604435,-0.0122,0.1055,0.9961,0.00,0.00,-0.12,4.61,1.53,48.67
3.634313,-0.0132,0.1064,0.9961,0.00,0.00,-0.06,4.61,1.53,48.67
3.634313,-0.0127,0.1060,0.9956,0.00,0.00,-0.12,4.61,1.53,48.67
3.664276,-0.0132,0.1060,0.9980,0.00,-0.06,-0.06,4.61,1.53,48.67
3.664276,-0.0127,0.1060,0.9971,-0.06,0.00,-0.12,4.61,1.53,48.67
3.724979,-0.0127,0.1064,0.9985,0.00,0.00,0.00,4.61,1.53,48.67
3.724979,-0.0132,0.1055,0.9980,0.00,0.00,-0.06,4.61,1.53,48.67
3.751509,-0.0132,0.1060,0.9980,0.00,0.00,-0.06,4.61,1.53,48.67
3.751509,-0.0122,0.1060,0.9980,0.00,0.00,-0.12,4.61,1.53,48.67
3.782380,-0.0127,0.1060,0.9966,0.00,0.00,-0.12,4.61,1.53,48.67
3.782380,-0.0127,0.1064,0.9976,-0.06,0.00,-0.12,4.61,1.53,48.67
3.842750,-0.0137,0.1060,0.9980,0.00,0.00,-0.12,4.61,1.53,48.67
3.842750,-0.0137,0.1055,0.9985,0.00,0.00,-0.18,4.61,1.53,48.67
3.871620,-0.0132,0.1055,0.9971,0.00,0.00,-0.12,4.61,1.53,48.67
3.871620,-0.0132,0.1064,0.9976,0.00,0.00,-0.06,4.61,1.53,48.67
3.902839,-0.0122,0.1055,0.9976,0.00,0.00,-0.06,4.61,1.53,48.67
3.902839,-0.0132,0.1060,0.9976,-0.06,0.00,-0.12,4.61,1.53,48.67
3.962475,-0.0127,0.1060,0.9971,0.00,0.00,-0.06,4.61,1.53,48.67
3.962475,-0.0132,0.1050,0.9966,0.00,0.00,-0.12,4.61,1.53,48.67
3.991633,-0.0132,0.1060,0.9971,0.00,0.00,-0.12,4.61,1.53,48.67
3.991633,-0.0132,0.1050,0.9976,-0.06,0.00,-0.06,4.61,1.53,48.67
4.052389,-0.0137,0.1060,0.9980,-0.06,0.00,-0.06,4.61,1.53,48.67
4.052389,-0.0132,0.1055,0.9980,0.00,0.00,-0.12,4.61,1.53,48.67
4.082417,-0.0132,0.1060,0.9980,0.00,0.00,-0.12,4.61,1.53,48.67
4.082417,-0.0127,0.1060,0.9971,0.00,0.00,-0.06,4.61,1.53,48.67
4.114317,-0.0132,0.1060,0.9971,0.00,0.00,-0.12,4.61,1.53,48.67
4.114317,-0.0132,0.1060,0.9971,0.00,0.00,-0.06,4.61,1.53,48.67
4.172384,-0.0127,0.1060,0.9980,0.00,0.00,-0.18,4.61,1.53,48.67
4.172384,-0.0127,0.1060,0.9971,0.00,0.00,-0.12,4.61,1.53,48.67
4.201633,-0.0132,0.1060,0.9971,0.00,0.00,-0.12,4.61,1.53,48.67
4.201633,-0.0122,0.1060,0.9966,-0.12,0.00,-0.06,4.61,1.53,48.67
4.232446,-0.0127,0.1060,0.9976,-0.06,0.00,-0.12,4.61,1.53,48.67
4.232446,-0.0127,0.1055,0.9980,0.00,0.00,-0.12,4.61,1.53,48.67
4.292422,-0.0127,0.1060,0.9976,0.00,0.00,-0.12,4.61,1.53,48.67
4.292422,-0.0127,0.1064,0.9980,0.00,0.00,-0.12,4.61,1.53,48.67
4.321615,-0.0122,0.1055,0.9971,0.00,0.00,-0.12,4.61,1.53,48.67
4.321615,-0.0132,0.1055,0.9976,0.00,0.00,-0.12,4.61,1.53,48.67
4.352386,-0.0132,0.1064,0.9976,0.00,0.00,-0.06,4.61,1.53,48.67
4.352386,-0.0132,0.1055,0.9976,0.00,0.00,-0.12,4.61,1.53,48.67
4.412421,-0.0137,0.1060,0.9976,0.00,0.00,-0.18,4.61,1.53,48.67
4.412421,-0.0127,0.1055,0.9971,0.00,0.00,-0.06,4.61,1.53,48.67
4.442639,-0.0132,0.1060,0.9980,0.00,0.00,-0.12,4.61,1.53,48.67
4.442639,-0.0132,0.1050,0.9966,0.00,0.00,-0.12,4.61,1.53,48.67
4.474588,-0.0132,0.1055,0.9980,-0.06,0.00,-0.12,4.61,1.53,48.67
4.474588,-0.0137,0.1055,0.9976,-0.06,0.00,-0.06,4.61,1.53,48.67
4.532493,-0.0127,0.1060,0.9976,0.00,0.00,-0.06,4.61,1.53,48.67
4.532493,-0.0117,0.1060,0.9971,0.00,0.00,0.00,4.61,1.53,48.67
4.561729,-0.0127,0.1060,0.9980,0.00,0.00,-0.06,4.61,1.53,48.67
4.561729,-0.0127,0.1060,0.9961,0.00,0.00,-0.06,4.61,1.53,48.67
4.592591,-0.0132,0.1064,0.9971,0.00,0.00,-0.06,4.61,1.53,48.67
4.592591,-0.0127,0.1060,0.9971,0.00,0.00,-0.06,4.61,1.53,48.67
4.652554,-0.0127,0.1064,0.9976,0.00,0.00,-0.06,4.61,1.53,48.67
4.652554,-0.0132,0.1064,0.9971,0.00,0.00,-0.06,4.61,1.53,48.67
4.681623,-0.0127,0.1055,0.9980,0.00,0.00,-0.12,4.61,1.53,48.67
4.681623,-0.0122,0.1060,0.9976,0.00,0.00,-0.12,4.61,1.53,48.67
4.747124,-0.0127,0.1060,0.9976,0.00,0.00,-0.06,4.61,1.53,48.67
4.747124,-0.0137,0.1055,0.9980,0.00,0.00,-0.12,4.61,1.53,48.67
4.772476,-0.0132,0.1060,0.9971,0.00,0.00,-0.12,4.61,1.53,48.67
4.772476,-0.0127,0.1055,0.9976,0.00,0.00,-0.12,4.61,1.53,48.67
4.801515,-0.0132,0.1064,0.9976,0.00,0.00,-0.06,4.61,1.53,48.67
4.801515,-0.0127,0.1060,0.9976,-0.06,0.00,0.00,4.61,1.53,48.67
4.832669,-0.0127,0.1060,0.9976,0.00,0.00,-0.06,4.61,1.53,48.67
4.832669,-0.0132,0.1055,0.9980,0.00,0.00,-0.12,4.61,1.53,48.67
4.892548,-0.0127,0.1050,0.9966,-0.06,0.00,-0.06,4.61,1.53,48.67
4.892548,-0.0127,0.1060,0.9966,0.00,0.00,0.00,4.61,1.53,48.67
4.921891,-0.0127,0.1055,0.9976,0.00,0.00,-0.06,4.61,1.53,48.67
4.921891,-0.0132,0.1060,0.9976,-0.06,0.00,-0.12,4.61,1.53,48.67
4.952609,-0.0127,0.1055,0.9976,0.00,0.00,-0.12,4.61,1.53,48.67
4.952609,-0.0132,0.1060,0.9971,0.00,0.00,-0.12,4.61,1.53,48.67
5.012588,-0.0137,0.1064,0.9971,0.00,0.00,-0.12,4.61,1.53,48.67
5.012588,-0.0127,0.1064,0.9966,0.00,0.00,-0.12,4.61,1.53,48.67
5.042851,-0.0132,0.1064,0.9971,0.00,0.00,-0.12,4.61,1.53,48.67
5.042851,-0.0137,0.1064,0.9971,0.00,0.00,-0.18,4.61,1.53,48.67
5.074443,-0.0132,0.1055,0.9980,0.00,0.00,-0.06,4.61,1.53,48.67
5.074443,-0.0127,0.1060,0.9971,0.00,0.00,-0.18,4.61,1.53,48.67
5.132445,-0.0127,0.1050,0.9976,0.00,0.00,-0.12,4.61,1.53,48.67
5.132445,-0.0127,0.1064,0.9976,0.00,0.00,-0.06,4.61,1.53,48.67
5.161678,-0.0132,0.1060,0.9976,0.00,0.00,-0.12,4.61,1.53,48.67
5.161678,-0.0132,0.1064,0.9980,0.00,0.00,-0.12,4.61,1.53,48.67
5.192940,-0.0137,0.1060,0.9980,-0.06,0.00,-0.06,4.61,1.53,48.67
5.192940,-0.0127,0.1055,0.9976,0.00,0.00,-0.12,4.61,1.53,48.67
5.254267,-0.0132,0.1060,0.9980,0.00,0.00,-0.12,4.61,1.53,48.67
5.254267,-0.0137,0.1060,0.9976,0.00,0.00,-0.06,4.61,1.53,48.67
5.287189,-0.0132,0.1055,0.9980,0.00,0.00,-0.12,4.61,1.53,48.67
5.287189,-0.0127,0.1064,0.9976,0.00,0.00,-0.06,4.61,1.53,48.67
5.312539,-0.0132,0.1064,0.9976,0.00,0.00,-0.06,4.61,1.53,48.67
5.312539,-0.0127,0.1055,0.9971,-0.06,0.00,-0.18,4.61,1.53,48.67
5.377816,-0.0132,0.1055,0.9971,0.00,0.00,-0.12,4.61,1.53,48.67
5.377816,-0.0132,0.1055,0.9980,-0.06,0.00,-0.06,4.61,1.53,48.67
5.401856,-0.0132,0.1055,0.9971,-0.06,0.00,-0.12,4.61,1.53,48.67
5.401856,-0.0132,0.1055,0.9976,0.00,0.00,-0.06,4.61,1.53,48.67
5.462594,-0.0132,0.1060,0.9980,0.00,0.00,-0.12,4.61,1.53,48.67
5.462594,-0.0127,0.1060,0.9980,0.00,0.00,-0.12,4.61,1.53,48.67
5.506504,-0.0132,0.1060,0.9980,-0.06,0.00,-0.12,4.61,1.53,48.67
5.506504,-0.0127,0.1060,0.9971,-0.06,0.00,-0.12,4.61,1.53,48.67
5.522437,-0.0132,0.1060,0.9980,0.00,0.00,-0.12,4.61,1.53,48.67
5.522437,-0.0127,0.1060,0.9971,-0.06,0.00,-0.18,4.61,1.53,48.67
5.582471,-0.0132,0.1060,0.9976,0.00,0.00,-0.12,4.61,1.53,48.67
5.582471,-0.0137,0.1064,0.9971,0.00,0.00,-0.06,4.61,1.53,48.67
5.612015,-0.0137,0.1060,0.9976,0.00,0.00,-0.06,4.61,1.53,48.67
5.612015,-0.0127,0.1060,0.9985,-0.06,0.00,-0.12,4.61,1.53,48.67
5.642956,-0.0127,0.1069,0.9976,0.00,0.00,-0.12,4.61,1.53,48.67
5.642956,-0.0127,0.1060,0.9980,-0.06,0.00,-0.12,4.61,1.53,48.67
5.702578,-0.0137,0.1050,0.9980,0.00,0.00,0.00,4.61,1.53,48.67
5.702578,-0.0132,0.1050,0.9976,0.00,0.00,-0.06,4.61,1.53,48.67
5.761718,-0.0122,0.1060,0.9980,0.00,0.00,-0.12,4.61,1.53,48.67
5.761718,-0.0132,0.1050,0.9971,0.00,0.00,-0.12,4.61,1.53,48.67
5.762438,-0.0142,0.1060,0.9980,-0.06,0.00,-0.12,4.61,1.53,48.67
5.762438,-0.0127,0.1060,0.9971,-0.06,0.00,0.00,4.61,1.53,48.67
5.822393,-0.0127,0.1060,0.9980,0.00,0.00,0.00,4.61,1.53,48.67
5.822393,-0.0127,0.1060,0.9976,0.00,0.00,-0.06,4.61,1.53,48.67
5.851691,-0.0132,0.1064,0.9976,0.00,0.00,-0.12,4.61,1.53,48.67
5.851691,-0.0132,0.1055,0.9980,0.00,0.00,-0.12,4.61,1.53,48.68
5.882582,-0.0132,0.1060,0.9980,0.00,0.00,-0.06,4.61,1.53,48.68
5.882582,-0.0132,0.1050,0.9985,0.00,0.00,-0.12,4.61,1.53,48.68
5.942939,-0.0127,0.1055,0.9976,0.00,0.00,-0.06,4.61,1.53,48.68
5.942939,-0.0122,0.1060,0.9985,0.00,0.00,-0.12,4.61,1.53,48.68
5.971789,-0.0132,0.1064,0.9980,0.00,0.00,-0.12,4.61,1.53,48.68
5.971789,-0.0137,0.1064,0.9980,0.00,0.00,-0.06,4.61,1.53,48.68
6.002823,-0.0132,0.1060,0.9976,0.00,0.00,-0.12,4.61,1.53,48.68
6.002823,-0.0132,0.1050,0.9976,-0.06,0.00,-0.12,4.61,1.53,48.68
6.062627,-0.0132,0.1060,0.9976,-0.12,0.00,-0.12,4.61,1.53,48.68
6.062627,-0.0122,0.1064,0.9976,0.00,0.00,-0.12,4.61,1.53,48.68
6.091760,-0.0122,0.1064,0.9980,0.00,0.00,-0.06,4.61,1.53,48.68
6.091760,-0.0137,0.1055,0.9980,0.00,0.00,-0.06,4.61,1.53,48.68
6.124514,-0.0127,0.1055,0.9990,0.00,0.00,-0.06,4.61,1.53,48.68
6.124514,-0.0137,0.1050,0.9976,0.00,0.00,-0.06,4.61,1.53,48.68
6.182473,-0.0132,0.1050,0.9985,0.00,0.00,-0.06,4.61,1.53,48.68
6.182473,-0.0132,0.1060,0.9985,-0.06,0.00,-0.12,4.61,1.53,48.68
6.211665,-0.0132,0.1060,0.9976,0.00,0.00,-0.06,4.61,1.53,48.68
6.211665,-0.0137,0.1055,0.9985,0.00,0.00,-0.12,4.61,1.53,48.68
6.242750,-0.0122,0.1055,0.9980,0.00,0.00,-0.12,4.61,1.53,48.68
6.242750,-0.0132,0.1064,0.9980,0.00,0.00,-0.06,4.61,1.53,48.68
6.302760,-0.0127,0.1055,0.9990,0.00,0.00,-0.06,4.61,1.53,48.68
6.302760,-0.0127,0.1060,0.9971,0.00,0.00,-0.06,4.61,1.53,48.68
6.331784,-0.0137,0.1060,0.9980,0.00,0.00,-0.12,4.61,1.53,48.68
6.331784,-0.0132,0.1064,0.9976,-0.06,0.00,-0.06,4.61,1.53,48.68
6.362407,-0.0127,0.1064,0.9985,0.00,0.00,-0.06,4.61,1.53,48.68
6.362407,-0.0122,0.1064,0.9980,0.00,0.00,-0.12,4.61,1.53,48.68
6.422461,-0.0117,0.1064,0.9980,-0.06,0.00,-0.06,4.61,1.53,48.68
6.422461,-0.0137,0.1055,0.9976,0.00,0.00,0.00,4.61,1.53,48.68
6.451673,-0.0137,0.1064,0.9976,0.00,0.00,-0.12,4.61,1.53,48.68
6.451673,-0.0132,0.1060,0.9976,-0.06,0.00,-0.12,4.61,1.53,48.68
6.482614,-0.0127,0.1050,0.9980,-0.06,0.00,-0.12,4.61,1.53,48.68
6.482614,-0.0137,0.1055,0.9985,0.00,0.00,-0.06,4.61,1.53,48.68
6.543320,-0.0132,0.1045,0.9980,0.00,0.00,-0.12,4.61,1.53,48.68
6.543320,-0.0137,0.1050,0.9980,0.00,0.00,-0.18,4.61,1.53,48.68
6.572000,-0.0127,0.1055,0.9980,0.00,0.00,-0.06,4.61,1.53,48.68
6.572000,-0.0132,0.1060,0.9976,0.00,0.00,-0.06,4.61,1.53,48.68
6.602591,-0.0142,0.1060,0.9966,0.00,0.00,-0.06,4.61,1.53,48.68
6.602591,-0.0132,0.1060,0.9980,-0.06,0.00,-0.12,4.61,1.53,48.68
6.662481,-0.0142,0.1060,0.9980,0.00,0.00,-0.12,4.61,1.53,48.68
6.662481,-0.0132,0.1055,0.9985,0.00,0.00,0.00,4.61,1.53,48.68
6.691671,-0.0132,0.1060,0.9980,-0.06,0.00,-0.12,4.61,1.53,48.68
6.691671,-0.0127,0.1064,0.9976,0.00,0.00,-0.12,4.61,1.53,48.68
6.722474,-0.0122,0.1060,0.9990,0.00,0.00,-0.12,4.61,1.53,48.68
6.722474,-0.0132,0.1064,0.9985,-0.06,0.00,-0.12,4.61,1.53,48.68
6.784446,-0.0132,0.1055,0.9976,0.00,0.00,-0.12,4.61,1.53,48.68
6.784446,-0.0132,0.1060,0.9976,-0.06,0.00,-0.12,4.61,1.53,48.68
6.811732,-0.0127,0.1060,0.9985,0.00,0.00,-0.12,4.61,1.53,48.68
6.811732,-0.0127,0.1069,0.9980,0.00,0.00,-0.12,4.61,1.53,48.68
6.872513,-0.0132,0.1060,0.9976,0.00,0.00,-0.12,4.61,1.53,48.68
6.872513,-0.0127,0.1064,0.9976,0.00,0.00,-0.06,4.61,1.53,48.68
6.901694,-0.0137,0.1055,0.9980,0.00,0.06,-0.12,4.61,1.53,48.68
6.901694,-0.0137,0.1050,0.9980,0.00,0.00,-0.12,4.61,1.53,48.68
6.932491,-0.0142,0.1050,0.9980,0.00,0.00,-0.12,4.61,1.53,48.68
6.932491,-0.0132,0.1055,0.9976,0.00,0.00,-0.06,4.61,1.53,48.68
6.992553,-0.0132,0.1060,0.9976,0.00,0.00,-0.12,4.61,1.53,48.68
6.992553,-0.0132,0.1064,0.9980,0.00,0.00,-0.06,4.61,1.53,48.68
7.021798,-0.0137,0.1064,0.9971,0.00,0.00,-0.06,4.61,1.53,48.68
7.021798,-0.0132,0.1060,0.9976,0.00,0.00,-0.06,4.61,1.53,48.68
7.052715,-0.0132,0.1055,0.9971,0.00,0.00,-0.12,4.61,1.53,48.68
7.052715,-0.0132,0.1045,0.9966,-0.06,0.00,-0.12,4.61,1.53,48.68
7.112652,-0.0127,0.1060,0.9980,0.00,0.00,-0.06,4.61,1.53,48.68
7.112652,-0.0127,0.1055,0.9976,-0.06,0.00,-0.12,4.61,1.53,48.68
7.142112,-0.0132,0.1055,0.9980,0.00,0.00,-0.06,4.61,1.53,48.68
7.142112,-0.0137,0.1060,0.9976,0.00,0.00,-0.06,4.61,1.53,48.68
7.172585,-0.0132,0.1069,0.9980,-0.06,0.00,-0.12,4.61,1.53,48.68
7.172585,-0.0132,0.1055,0.9976,-0.06,0.00,-0.12,4.61,1.53,48.68
7.232622,-0.0142,0.1060,0.9985,0.00,0.00,-0.12,4.61,1.53,48.68
7.232622,-0.0142,0.1055,0.9985,0.00,0.00,-0.06,4.61,1.53,48.68
7.263094,-0.0127,0.1064,0.9971,-0.06,0.00,-0.12,4.61,1.53,48.68
7.263094,-0.0127,0.1064,0.9971,0.00,0.06,-0.12,4.61,1.53,48.68
7.291726,-0.0137,0.1050,0.9985,-0.06,0.00,-0.06,4.61,1.53,48.68
7.291726,-0.0132,0.1064,0.9971,0.00,0.00,-0.12,4.61,1.53,48.68
7.352484,-0.0137,0.1064,0.9976,0.00,0.00,-0.18,4.61,1.53,48.68
7.352484,-0.0137,0.1055,0.9976,0.00,0.00,-0.12,4.61,1.53,48.68
7.381692,-0.0132,0.1060,0.9971,0.00,0.00,-0.12,4.61,1.53,48.68
7.381692,-0.0132,0.1060,0.9985,-0.06,0.00,-0.06,4.61,1.53,48.68
7.412388,-0.0132,0.1060,0.9976,0.00,0.00,-0.06,4.61,1.53,48.68
7.412388,-0.0132,0.1060,0.9971,-0.12,0.00,-0.12,4.61,1.53,48.68
7.472631,-0.0122,0.1055,0.9976,-0.06,0.00,-0.06,4.61,1.53,48.68
7.472631,-0.0127,0.1055,0.9976,0.00,0.00,-0.12,4.61,1.53,48.68
7.501845,-0.0142,0.1055,0.9980,0.00,0.00,-0.06,4.61,1.53,48.68
7.501845,-0.0132,0.1069,0.9980,0.00,0.00,-0.12,4.61,1.53,48.68
7.532550,-0.0127,0.1060,0.9980,0.00,0.00,-0.06,4.61,1.53,48.68
7.532550,-0.0137,0.1060,0.9976,0.00,0.00,-0.12,4.61,1.53,48.68
7.592481,-0.0127,0.1050,0.9985,-0.06,0.00,-0.06,4.61,1.53,48.68
7.592481,-0.0127,0.1060,0.9976,0.00,0.00,-0.12,4.61,1.53,48.68
7.621690,-0.0127,0.1060,0.9971,0.00,0.00,-0.12,4.61,1.53,48.68
7.621690,-0.0137,0.1055,0.9976,0.00,0.00,-0.06,4.61,1.53,48.68
7.652465,-0.0122,0.1055,0.9971,-0.06,0.00,-0.06,4.61,1.53,48.68
7.652465,-0.0127,0.1064,0.9956,0.00,0.00,-0.12,4.61,1.53,48.68
7.712464,-0.0132,0.1069,0.9985,0.00,0.00,-0.12,4.61,1.53,48.68
7.712464,-0.0127,0.1045,0.9980,0.00,0.00,-0.18,4.61,1.53,48.68
7.742157,-0.0132,0.1060,0.9980,-0.06,0.00,-0.12,4.61,1.53,48.68
7.742157,-0.0127,0.1064,0.9971,0.00,0.00,-0.12,4.61,1.53,48.68
7.809871,-0.0132,0.1055,0.9971,0.00,0.00,-0.12,4.61,1.53,48.68
7.809871,-0.0132,0.1069,0.9976,-0.06,0.00,-0.12,4.61,1.53,48.68
7.832551,-0.0132,0.1045,0.9976,0.00,0.00,-0.06,4.61,1.53,48.68
7.832551,-0.0127,0.1055,0.9980,0.00,0.00,-0.06,4.61,1.53,48.68
7.861675,-0.0127,0.1060,0.9976,0.00,0.00,-0.12,4.61,1.53,48.68
7.861675,-0.0122,0.1060,0.9976,-0.06,0.00,-0.12,4.61,1.53,48.68
7.892555,-0.0127,0.1064,0.9966,0.00,0.00,-0.12,4.61,1.53,48.68
7.892555,-0.0137,0.1064,0.9976,0.00,0.00,-0.06,4.61,1.53,48.68
7.952523,-0.0127,0.1064,0.9980,0.00,0.00,-0.06,4.61,1.53,48.68
7.952523,-0.0137,0.1060,0.9976,0.00,0.00,-0.06,4.61,1.53,48.68
7.981753,-0.0137,0.1055,0.9971,0.00,0.00,-0.06,4.61,1.53,48.68
7.981753,-0.0132,0.1055,0.9971,0.00,0.00,-0.06,4.61,1.53,48.68
8.012503,-0.0127,0.1055,0.9971,0.00,0.00,-0.18,4.61,1.53,48.68
8.012503,-0.0132,0.1055,0.9976,0.00,0.00,-0.12,4.61,1.53,48.68
8.071875,-0.0132,0.1055,0.9971,0.00,0.00,-0.06,4.61,1.53,48.68
8.071875,-0.0142,0.1055,0.9971,0.00,0.00,-0.12,4.61,1.53,48.68
8.104552,-0.0132,0.1050,0.9980,0.00,0.00,-0.06,4.61,1.53,48.68
8.104552,-0.0132,0.1055,0.9971,0.00,0.00,-0.12,4.61,1.53,48.68
8.134635,-0.0127,0.1060,0.9976,-0.06,0.00,-0.06,4.61,1.53,48.68
8.134635,-0.0142,0.1060,0.9976,0.00,0.00,-0.06,4.61,1.53,48.68
8.192542,-0.0132,0.1064,0.9971,-0.06,0.00,-0.06,4.61,1.53,48.68
8.192542,-0.0132,0.1055,0.9976,0.00,0.00,-0.12,4.61,1.53,48.68
8.221809,-0.0127,0.1060,0.9976,0.00,0.00,-0.12,4.61,1.53,48.68
8.221809,-0.0132,0.1060,0.9971,0.00,0.00,-0.06,4.61,1.53,48.68
8.282513,-0.0132,0.1055,0.9976,0.00,0.00,-0.12,4.61,1.53,48.68
8.282513,-0.0137,0.1064,0.9961,0.00,0.00,-0.12,4.61,1.53,48.68
8.311709,-0.0137,0.1060,0.9976,0.00,0.00,-0.18,4.61,1.53,48.68
8.311709,-0.0132,0.1060,0.9980,0.00,0.00,-0.12,4.61,1.53,48.68
8.342006,-0.0132,0.1064,0.9976,-0.06,0.00,-0.12,4.61,1.53,48.68
8.342006,-0.0132,0.1060,0.9985,-0.06,0.00,-0.06,4.61,1.53,48.68
8.402735,-0.0132,0.1060,0.9980,0.00,0.00,-0.06,4.61,1.53,48.68
8.402735,-0.0137,0.1060,0.9985,0.00,0.00,-0.12,4.61,1.53,48.68
8.432949,-0.0132,0.1055,0.9976,0.00,0.00,-0.06,4.61,1.53,48.68
8.432949,-0.0132,0.1055,0.9976,0.00,0.00,-0.06,4.61,1.53,48.68
8.461845,-0.0137,0.1055,0.9980,-0.06,0.00,-0.06,4.61,1.53,48.68
8.461845,-0.0127,0.1050,0.9980,0.00,0.00,-0.06,4.61,1.53,48.68
8.522666,-0.0127,0.1050,0.9966,0.00,0.00,-0.06,4.61,1.53,48.68
8.522666,-0.0127,0.1060,0.9966,-0.06,0.00,-0.06,4.61,1.53,48.68
8.551798,-0.0127,0.1055,0.9976,0.00,0.00,-0.12,4.61,1.53,48.68
8.551798,-0.0137,0.1055,0.9980,-0.06,0.00,-0.12,4.61,1.53,48.68
8.582519,-0.0127,0.1060,0.9966,0.00,0.00,-0.06,4.61,1.53,48.68
8.582519,-0.0127,0.1060,0.9966,0.00,0.00,-0.06,4.61,1.53,48.68
8.642796,-0.0137,0.1064,0.9976,0.00,0.00,-0.06,4.61,1.53,48.68
8.642796,-0.0132,0.1060,0.9961,0.00,0.00,-0.12,4.61,1.53,48.68
8.671753,-0.0137,0.1064,0.9976,0.00,0.06,-0.06,4.61,1.53,48.68
8.671753,-0.0132,0.1055,0.9980,0.00,0.00,-0.12,4.61,1.53,48.68
8.702620,-0.0137,0.1055,0.9966,0.00,0.00,-0.06,4.61,1.53,48.68
8.702620,-0.0137,0.1050,0.9980,0.00,0.00,-0.12,4.61,1.54,48.68
8.762659,-0.0127,0.1060,0.9966,0.00,0.00,-0.12,4.61,1.54,48.68
8.762659,-0.0142,0.1064,0.9971,0.00,0.00,-0.12,4.61,1.54,48.68
8.827154,-0.0137,0.1060,0.9985,0.00,0.00,-0.12,4.61,1.54,48.68
8.827154,-0.0127,0.1064,0.9971,0.00,0.00,-0.06,4.61,1.54,48.68
8.827183,-0.0132,0.1064,0.9976,0.00,0.00,-0.06,4.61,1.54,48.69
8.827183,-0.0127,0.1069,0.9976,-0.06,0.00,-0.12,4.61,1.54,48.69
8.882430,-0.0137,0.1064,0.9971,0.00,0.00,-0.12,4.61,1.54,48.69
8.882430,-0.0127,0.1069,0.9966,0.00,0.00,-0.06,4.61,1.54,48.69
8.911705,-0.0127,0.1064,0.9971,0.00,0.00,-0.06,4.61,1.54,48.69
8.911705,-0.0127,0.1064,0.9971,0.00,0.00,-0.12,4.61,1.54,48.69
8.942890,-0.0127,0.1060,0.9976,0.00,0.00,-0.12,4.61,1.54,48.69
8.942890,-0.0127,0.1064,0.9976,0.00,0.00,-0.18,4.61,1.54,48.69
9.002790,-0.0137,0.1060,0.9976,0.00,0.00,-0.12,4.61,1.54,48.69
9.002790,-0.0127,0.1064,0.9971,0.00,0.00,-0.12,4.61,1.54,48.69
9.032938,-0.0127,0.1060,0.9976,0.00,0.00,-0.12,4.61,1.54,48.69
9.032938,-0.0132,0.1064,0.9985,0.00,0.00,-0.06,4.61,1.53,48.69
9.061872,-0.0132,0.1060,0.9976,-0.06,0.00,-0.06,4.61,1.53,48.69
9.061872,-0.0117,0.1064,0.9976,-0.06,0.00,-0.06,4.61,1.53,48.69
9.122598,-0.0137,0.1069,0.9966,0.00,0.00,-0.12,4.61,1.53,48.69
9.122598,-0.0122,0.1064,0.9966,0.00,0.00,-0.06,4.61,1.53,48.69
9.151773,-0.0127,0.1060,0.9956,0.00,0.00,-0.12,4.61,1.53,48.69
9.151773,-0.0137,0.1064,0.9961,0.00,0.06,-0.12,4.61,1.53,48.69
9.182520,-0.0132,0.1060,0.9971,0.00,0.00,-0.12,4.61,1.53,48.69
9.182520,-0.0142,0.1060,0.9971,0.00,0.00,-0.12,4.61,1.53,48.69
9.242886,-0.0137,0.1055,0.9976,0.00,0.00,-0.06,4.61,1.53,48.69
9.242886,-0.0137,0.1060,0.9961,0.00,0.00,-0.18,4.61,1.53,48.69
9.272109,-0.0132,0.1064,0.9976,0.00,0.00,-0.18,4.61,1.53,48.69
9.272109,-0.0127,0.1060,0.9971,0.00,0.00,-0.12,4.61,1.54,48.69
9.302655,-0.0137,0.1064,0.9976,0.00,0.00,-0.06,4.61,1.54,48.69
9.302655,-0.0132,0.1064,0.9961,0.00,0.00,-0.06,4.61,1.54,48.69
9.362512,-0.0142,0.1074,0.9971,0.00,0.00,-0.06,4.61,1.54,48.69
9.362512,-0.0122,0.1064,0.9966,-0.06,0.00,-0.12,4.61,1.54,48.69
9.391715,-0.0142,0.1069,0.9971,-0.06,0.00,-0.12,4.61,1.54,48.69
9.391715,-0.0137,0.1060,0.9966,0.00,0.00,-0.12,4.61,1.54,48.69
9.422489,-0.0132,0.1050,0.9971,0.00,0.00,-0.12,4.61,1.54,48.69
9.422489,-0.0127,0.1055,0.9980,-0.06,0.00,-0.12,4.61,1.54,48.69
9.484235,-0.0127,0.1064,0.9985,0.00,0.00,-0.12,4.61,1.54,48.69
9.484235,-0.0127,0.1060,0.9976,-0.06,0.00,-0.06,4.61,1.54,48.69
9.511961,-0.0132,0.1064,0.9976,-0.06,0.00,-0.06,4.61,1.54,48.69
9.511961,-0.0132,0.1069,0.9976,0.00,0.00,-0.12,4.61,1.54,48.69
9.542867,-0.0132,0.1064,0.9971,-0.06,0.00,-0.06,4.61,1.54,48.69
9.542867,-0.0127,0.1060,0.9980,0.00,0.00,-0.06,4.61,1.54,48.69
9.602683,-0.0127,0.1064,0.9980,0.00,0.00,-0.06,4.61,1.54,48.69
9.602683,-0.0142,0.1055,0.9966,-0.06,0.00,-0.12,4.61,1.54,48.69
9.631766,-0.0137,0.1060,0.9961,0.00,0.00,-0.06,4.61,1.54,48.69
9.631766,-0.0132,0.1064,0.9976,0.00,0.00,-0.06,4.61,1.54,48.69
9.692538,-0.0132,0.1064,0.9980,0.00,0.00,-0.06,4.61,1.54,48.69
9.692538,-0.0132,0.1064,0.9966,0.00,0.00,-0.12,4.61,1.54,48.69
9.721947,-0.0132,0.1064,0.9980,-0.06,0.00,-0.06,4.61,1.54,48.69
9.721947,-0.0132,0.1064,0.9976,0.00,0.00,-0.06,4.61,1.54,48.69
9.752574,-0.0132,0.1064,0.9976,0.00,0.00,-0.12,4.61,1.54,48.69
9.752574,-0.0132,0.1055,0.9966,0.00,0.00,-0.06,4.61,1.54,48.69
9.842452,-0.0132,0.1064,0.9980,-0.06,0.00,-0.06,4.61,1.54,48.69
9.842452,-0.0142,0.1060,0.9985,0.00,0.00,-0.06,4.61,1.54,48.69
9.910915,-0.0132,0.1064,0.9976,0.00,0.00,-0.06,4.61,1.54,48.69
9.910915,-0.0127,0.1060,0.9971,0.00,0.00,-0.18,4.61,1.54,48.69
9.910938,-0.0127,0.1060,0.9980,0.00,0.00,-0.12,4.61,1.54,48.69
9.910938,-0.0132,0.1064,0.9966,-0.06,0.00,-0.06,4.61,1.54,48.69
9.931780,-0.0137,0.1055,0.9971,0.00,0.00,-0.06,4.61,1.54,48.69
9.931780,-0.0142,0.1074,0.9971,0.00,0.00,-0.12,4.61,1.54,48.69
9.961735,-0.0132,0.1064,0.9980,-0.06,0.00,-0.06,4.61,1.54,48.69
9.961735,-0.0127,0.1069,0.9980,-0.06,0.00,-0.12,4.61,1.54,48.69
9.991879,-0.0132,0.1060,0.9976,0.00,0.00,-0.06,4.61,1.54,48.69
9.991879,-0.0127,0.1060,0.9976,0.00,0.00,-0.06,4.61,1.54,48.69
10.051832,-0.0132,0.1060,0.9976,0.00,0.00,-0.06,4.61,1.54,48.69
10.051832,-0.0122,0.1060,0.9976,0.00,0.00,-0.12,4.61,1.54,48.69
10.081891,-0.0127,0.1069,0.9985,0.00,0.00,-0.06,4.61,1.54,48.69
10.081891,-0.0127,0.1064,0.9985,0.00,0.00,-0.06,4.61,1.54,48.69
10.111822,-0.0132,0.1050,0.9976,0.00,0.00,-0.06,4.61,1.54,48.69
10.111822,-0.0127,0.1060,0.9976,-0.06,0.00,0.00,4.61,1.54,48.69
10.172558,-0.0132,0.1064,0.9976,0.00,0.00,-0.12,4.61,1.54,48.69
10.172558,-0.0132,0.1064,0.9976,0.00,0.00,-0.12,4.61,1.54,48.69
10.201734,-0.0122,0.1050,0.9985,0.00,0.00,-0.06,4.61,1.54,48.69
10.201734,-0.0132,0.1064,0.9976,0.00,0.00,-0.06,4.61,1.54,48.69
10.231835,-0.0132,0.1060,0.9976,0.00,0.00,-0.06,4.61,1.54,48.69
10.231835,-0.0137,0.1069,0.9985,0.00,0.00,-0.06,4.61,1.54,48.69
10.291755,-0.0137,0.1060,0.9971,0.00,0.00,-0.12,4.61,1.54,48.69
10.291755,-0.0137,0.1055,0.9980,-0.06,-0.06,-0.06,4.61,1.54,48.69
10.321763,-0.0132,0.1064,0.9985,0.00,0.00,-0.06,4.61,1.54,48.69
10.321763,-0.0127,0.1060,0.9971,-0.06,0.06,-0.06,4.61,1.54,48.69
10.352641,-0.0132,0.1064,0.9971,0.00,0.00,-0.06,4.61,1.54,48.69
10.352641,-0.0127,0.1050,0.9976,0.00,0.00,-0.06,4.61,1.54,48.69
10.412655,-0.0142,0.1055,0.9980,0.00,0.00,-0.06,4.61,1.54,48.69
10.412655,-0.0137,0.1064,0.9985,0.00,0.00,-0.06,4.61,1.54,48.69
10.442856,-0.0132,0.1064,0.9976,-0.06,0.00,-0.06,4.61,1.54,48.69
10.442856,-0.0132,0.1064,0.9976,0.00,0.00,-0.06,4.61,1.54,48.69
10.471886,-0.0122,0.1055,0.9976,-0.06,0.00,-0.12,4.61,1.54,48.69
10.471886,-0.0127,0.1060,0.9976,-0.06,0.00,-0.06,4.61,1.54,48.69
10.532755,-0.0127,0.1055,0.9971,-0.06,0.00,-0.06,4.61,1.54,48.69
10.532755,-0.0127,0.1045,0.9995,0.00,0.00,-0.12,4.61,1.54,48.69
10.561866,-0.0127,0.1064,0.9976,0.00,0.00,-0.06,4.61,1.54,48.69
10.561866,-0.0127,0.1064,0.9990,0.00,0.00,-0.12,4.61,1.54,48.69
10.592654,-0.0132,0.1064,0.9980,0.00,0.00,-0.12,4.61,1.54,48.69
10.592654,-0.0127,0.1064,0.9985,0.00,0.00,-0.06,4.61,1.54,48.69
10.652583,-0.0127,0.1064,0.9971,-0.06,0.00,-0.06,4.61,1.54,48.69
10.652583,-0.0132,0.1055,0.9980,-0.06,0.00,-0.06,4.61,1.54,48.69
10.681773,-0.0127,0.1060,0.9980,0.00,0.00,-0.06,4.61,1.54,48.69
10.681773,-0.0127,0.1064,0.9980,0.00,0.00,-0.06,4.61,1.54,48.69
10.712545,-0.0142,0.1064,0.9980,0.00,0.06,-0.06,4.61,1.54,48.69
10.712545,-0.0132,0.1069,0.9985,0.00,0.00,-0.06,4.61,1.54,48.69
10.772658,-0.0127,0.1069,0.9976,0.00,0.00,-0.12,4.62,1.54,48.69
10.772658,-0.0132,0.1060,0.9976,0.00,0.00,-0.12,4.62,1.54,48.69
10.801774,-0.0132,0.1055,0.9976,0.00,0.00,-0.12,4.62,1.54,48.69
10.801774,-0.0127,0.1064,0.9971,0.00,0.00,-0.12,4.62,1.54,48.69
10.832509,-0.0132,0.1055,0.9980,0.00,0.00,-0.12,4.62,1.54,48.69
10.832509,-0.0132,0.1064,0.9980,0.00,0.00,-0.06,4.62,1.54,48.69
10.892644,-0.0127,0.1055,0.9976,0.00,0.00,-0.06,4.62,1.54,48.69
10.892644,-0.0127,0.1064,0.9985,0.00,0.00,-0.12,4.62,1.54,48.69
10.960596,-0.0132,0.1055,0.9985,0.00,0.00,-0.06,4.62,1.54,48.69
10.960596,-0.0132,0.1064,0.9985,0.00,0.00,-0.12,4.62,1.54,48.69
10.960617,-0.0127,0.1064,0.9976,0.00,0.00,-0.12,4.62,1.54,48.69
10.960617,-0.0137,0.1064,0.9971,0.00,0.00,-0.06,4.62,1.54,48.69
11.012609,-0.0132,0.1050,0.9976,0.00,0.00,0.00,4.62,1.54,48.69
11.012609,-0.0127,0.1064,0.9976,0.00,0.00,0.00,4.62,1.54,48.69
11.042145,-0.0127,0.1064,0.9971,0.00,0.00,-0.06,4.62,1.54,48.69
11.042145,-0.0127,0.1060,0.9971,0.00,0.00,-0.06,4.62,1.54,48.69
11.104585,-0.0132,0.1069,0.9976,-0.06,0.00,-0.06,4.62,1.54,48.69
11.104585,-0.0127,0.1069,0.9985,-0.06,0.00,-0.12,4.62,1.54,48.69
11.134500,-0.0127,0.1069,0.9980,-0.06,0.00,-0.06,4.62,1.54,48.69
11.134500,-0.0127,0.1060,0.9985,0.00,0.00,-0.06,4.62,1.54,48.69
11.162936,-0.0132,0.1069,0.9985,0.00,0.00,-0.12,4.62,1.54,48.69
11.162936,-0.0127,0.1060,0.9990,0.00,0.00,-0.12,4.62,1.54,48.69
11.222675,-0.0132,0.1064,0.9976,0.00,0.00,-0.06,4.62,1.54,48.69
11.222675,-0.0122,0.1060,0.9976,-0.06,0.00,-0.12,4.62,1.54,48.69
11.251874,-0.0132,0.1055,0.9985,0.00,0.00,-0.12,4.62,1.54,48.69
11.251874,-0.0127,0.1055,0.9980,-0.06,0.00,-0.12,4.62,1.53,48.69
11.284332,-0.0132,0.1055,0.9971,0.00,0.00,-0.12,4.62,1.53,48.69
11.284332,-0.0122,0.1060,0.9995,0.00,0.06,-0.12,4.62,1.53,48.69
11.342978,-0.0127,0.1060,0.9976,-0.06,0.00,-0.12,4.62,1.53,48.69
11.342978,-0.0122,0.1060,0.9971,0.00,0.00,-0.06,4.62,1.53,48.69
11.371820,-0.0127,0.1069,0.9966,0.00,0.00,-0.12,4.62,1.53,48.69
11.371820,-0.0132,0.1060,0.9980,0.00,0.00,-0.12,4.62,1.53,48.69
11.402720,-0.0132,0.1055,0.9990,-0.06,0.00,-0.12,4.62,1.53,48.69
11.402720,-0.0127,0.1055,0.9985,-0.06,0.00,-0.12,4.62,1.53,48.69
11.463038,-0.0146,0.1060,0.9990,-0.06,0.00,-0.06,4.62,1.53,48.69
11.463038,-0.0142,0.1064,0.9976,0.00,0.00,-0.12,4.62,1.53,48.69
11.491978,-0.0132,0.1064,0.9976,-0.06,0.00,-0.06,4.62,1.54,48.69
11.491978,-0.0127,0.1060,0.9971,-0.06,0.00,-0.12,4.62,1.54,48.69
11.522679,-0.0127,0.1055,0.9966,-0.12,0.00,-0.06,4.62,1.54,48.69
11.522679,-0.0137,0.1055,0.9990,0.00,0.00,-0.06,4.62,1.54,48.69
11.585022,-0.0137,0.1060,0.9985,-0.06,0.00,-0.12,4.62,1.54,48.69
11.585022,-0.0127,0.1060,0.9976,-0.12,0.00,-0.18,4.62,1.54,48.69
11.614633,-0.0132,0.1045,0.9985,-0.06,0.00,-0.12,4.62,1.54,48.69
11.614633,-0.0122,0.1055,0.9980,0.00,0.00,-0.12,4.62,1.54,48.69
11.645000,-0.0132,0.1060,0.9985,0.00,0.00,-0.12,4.62,1.54,48.69
11.645000,-0.0142,0.1064,0.9980,0.00,0.00,-0.12,4.62,1.54,48.69
11.702899,-0.0127,0.1064,0.9976,-0.06,0.00,-0.12,4.62,1.54,48.69
11.702899,-0.0127,0.1064,0.9971,-0.06,0.00,-0.06,4.62,1.54,48.69
11.734654,-0.0132,0.1060,0.9971,-0.06,0.00,-0.12,4.62,1.54,48.69
11.734654,-0.0132,0.1050,0.9966,-0.06,0.00,-0.06,4.62,1.54,48.69
11.764097,-0.0132,0.1060,0.9971,-0.06,0.00,-0.06,4.62,1.54,48.69
11.764097,-0.0127,0.1060,0.9980,0.00,0.00,-0.12,4.62,1.54,48.69
11.823014,-0.0137,0.1064,0.9976,0.00,0.00,0.00,4.62,1.54,48.69
11.823014,-0.0132,0.1060,0.9985,-0.06,0.00,-0.12,4.62,1.54,48.69
11.851761,-0.0132,0.1055,0.9976,0.00,0.00,-0.12,4.62,1.54,48.69
11.851761,-0.0132,0.1060,0.9976,0.00,0.00,-0.12,4.62,1.54,48.69
11.882559,-0.0132,0.1060,0.9980,-0.06,0.00,-0.06,4.62,1.54,48.69
11.882559,-0.0127,0.1064,0.9980,-0.06,0.00,-0.12,4.62,1.54,48.69
11.944906,-0.0132,0.1064,0.9971,0.00,0.00,-0.06,4.62,1.54,48.69
11.944906,-0.0137,0.1055,0.9971,0.00,0.00,-0.06,4.62,1.54,48.69
12.012354,-0.0127,0.1055,0.9971,0.00,0.00,-0.06,4.62,1.54,48.69
12.012354,-0.0127,0.1060,0.9976,0.00,0.00,-0.06,4.62,1.54,48.69
12.012386,-0.0127,0.1064,0.9976,-0.06,0.00,-0.06,4.62,1.54,48.69
12.012386,-0.0132,0.1060,0.9976,0.00,0.00,-0.12,4.62,1.54,48.69
12.061904,-0.0127,0.1055,0.9971,-0.06,0.00,-0.06,4.62,1.54,48.69
12.061904,-0.0127,0.1055,0.9971,0.00,0.00,-0.06,4.62,1.54,48.69
12.092700,-0.0132,0.1064,0.9971,0.00,0.00,-0.06,4.62,1.54,48.69
12.092700,-0.0122,0.1060,0.9980,0.00,0.00,-0.06,4.62,1.54,48.69
12.121752,-0.0132,0.1060,0.9976,0.00,0.00,-0.06,4.62,1.54,48.69
12.121752,-0.0137,0.1055,0.9976,0.00,0.00,-0.12,4.62,1.54,48.69
12.182823,-0.0132,0.1064,0.9985,0.00,0.00,-0.06,4.62,1.54,48.69
12.182823,-0.0132,0.1055,0.9980,0.00,0.00,-0.06,4.62,1.54,48.69
12.212008,-0.0132,0.1055,0.9976,0.00,0.00,-0.06,4.62,1.54,48.69
12.212008,-0.0127,0.1060,0.9976,0.00,-0.06,-0.06,4.62,1.54,48.69
12.243106,-0.0127,0.1060,0.9990,0.00,0.00,-0.06,4.62,1.54,48.69
12.243106,-0.0132,0.1060,0.9980,-0.06,0.00,-0.06,4.62,1.54,48.69
12.301764,-0.0137,0.1060,0.9976,0.00,0.00,-0.06,4.62,1.54,48.69
12.301764,-0.0137,0.1064,0.9971,0.00,0.00,-0.06,4.62,1.54,48.69
12.332662,-0.0142,0.1060,0.9971,0.00,0.00,-0.12,4.62,1.54,48.69
12.332662,-0.0137,0.1055,0.9971,0.00,0.00,-0.06,4.62,1.54,48.69
12.362030,-0.0137,0.1069,0.9976,0.00,0.00,-0.06,4.62,1.54,48.69
12.362030,-0.0132,0.1060,0.9976,0.00,0.00,-0.12,4.62,1.54,48.69
12.422559,-0.0132,0.1060,0.9971,0.00,0.00,-0.06,4.62,1.54,48.69
12.422559,-0.0122,0.1064,0.9980,0.00,0.00,-0.06,4.62,1.54,48.69
12.451917,-0.0132,0.1069,0.9971,-0.06,0.00,-0.12,4.62,1.54,48.69
12.451917,-0.0132,0.1064,0.9971,-0.06,0.00,-0.06,4.62,1.54,48.69
12.512744,-0.0127,0.1055,0.9971,0.00,0.00,-0.06,4.62,1.54,48.69
12.512744,-0.0137,0.1055,0.9971,0.00,0.00,-0.12,4.62,1.54,48.69
12.542201,-0.0132,0.1055,0.9980,0.00,0.00,-0.06,4.62,1.54,48.69
12.542201,-0.0132,0.1055,0.9985,0.00,0.00,-0.12,4.62,1.54,48.69
12.572762,-0.0132,0.1055,0.9980,0.00,0.00,-0.06,4.62,1.54,48.69
12.572762,-0.0137,0.1060,0.9980,0.00,0.00,-0.12,4.62,1.54,48.69
12.632732,-0.0132,0.1064,0.9980,0.00,0.00,-0.06,4.62,1.54,48.69
12.632732,-0.0132,0.1055,0.9976,0.00,0.00,-0.12,4.62,1.54,48.69
12.661822,-0.0127,0.1060,0.9976,0.00,0.00,0.00,4.62,1.54,48.69
12.661822,-0.0132,0.1055,0.9976,0.00,0.00,-0.06,4.62,1.54,48.69
12.692652,-0.0132,0.1050,0.9976,0.00,0.00,-0.12,4.62,1.54,48.69
12.692652,-0.0132,0.1050,0.9980,0.00,0.00,-0.06,4.61,1.54,48.69
12.752667,-0.0127,0.1060,0.9976,0.00,0.00,-0.06,4.61,1.54,48.69
12.752667,-0.0132,0.1060,0.9976,0.00,0.00,-0.06,4.61,1.54,48.69
12.781909,-0.0132,0.1060,0.9980,0.00,0.00,-0.12,4.61,1.54,48.69
12.781909,-0.0137,0.1060,0.9976,0.00,0.00,-0.06,4.61,1.54,48.69
12.812644,-0.0142,0.1060,0.9980,0.00,0.00,-0.12,4.61,1.54,48.69
12.812644,-0.0122,0.1060,0.9980,0.00,0.00,-0.06,4.61,1.54,48.69
12.874941,-0.0137,0.1069,0.9985,0.00,0.00,-0.06,4.61,1.54,48.69
12.874941,-0.0127,0.1055,0.9985,0.00,0.00,-0.06,4.61,1.54,48.69
12.904688,-0.0127,0.1055,0.9980,0.00,0.00,-0.06,4.61,1.54,48.69
12.904688,-0.0132,0.1055,0.9985,-0.06,0.00,-0.12,4.61,1.54,48.69
12.934625,-0.0132,0.1055,0.9985,0.00,0.00,-0.06,4.61,1.54,48.69
12.934625,-0.0122,0.1060,0.9980,0.00,0.00,-0.12,4.61,1.54,48.69
12.992787,-0.0132,0.1069,0.9966,-0.06,0.00,-0.06,4.61,1.54,48.69
12.992787,-0.0137,0.1069,0.9976,-0.06,0.00,-0.06,4.61,1.54,48.69
13.056108,-0.0132,0.1064,0.9971,0.00,0.00,-0.12,4.61,1.54,48.69
13.056108,-0.0142,0.1064,0.9985,0.00,0.00,-0.12,4.61,1.54,48.69
13.056131,-0.0127,0.1060,0.9971,0.00,0.00,-0.06,4.61,1.54,48.69
13.056131,-0.0132,0.1055,0.9971,0.00,0.00,0.00,4.61,1.54,48.69
13.112547,-0.0122,0.1064,0.9976,0.00,0.00,-0.06,4.61,1.54,48.69
13.112547,-0.0132,0.1050,0.9985,0.00,0.00,-0.12,4.61,1.54,48.69
13.142134,-0.0137,0.1064,0.9985,0.00,0.00,-0.12,4.61,1.54,48.69
13.142134,-0.0132,0.1060,0.9976,0.00,0.00,-0.06,4.61,1.54,48.69
13.174568,-0.0132,0.1064,0.9980,0.00,0.00,-0.12,4.61,1.54,48.69
13.174568,-0.0127,0.1060,0.9980,0.00,0.00,-0.12,4.61,1.54,48.69
13.232721,-0.0127,0.1064,0.9976,0.00,0.00,-0.12,4.61,1.54,48.69
13.232721,-0.0127,0.1064,0.9971,0.00,0.00,-0.12,4.61,1.54,48.69
13.261871,-0.0146,0.1064,0.9976,-0.06,0.00,-0.06,4.61,1.54,48.69
13.261871,-0.0132,0.1064,0.9976,-0.06,0.00,-0.06,4.61,1.54,48.69
13.292636,-0.0122,0.1069,0.9976,-0.06,0.00,0.00,4.61,1.54,48.69
13.292636,-0.0127,0.1060,0.9976,0.00,0.00,0.00,4.62,1.54,48.69
13.352620,-0.0132,0.1064,0.9971,-0.06,0.00,-0.06,4.62,1.54,48.69
13.352620,-0.0122,0.1045,0.9966,0.00,0.00,-0.12,4.62,1.54,48.69
13.381914,-0.0132,0.1060,0.9971,-0.06,0.06,-0.06,4.62,1.54,48.69
13.381914,-0.0137,0.1069,0.9971,0.00,0.00,-0.06,4.62,1.54,48.69
13.412741,-0.0127,0.1055,0.9990,-0.06,0.00,-0.06,4.62,1.54,48.69
13.412741,-0.0132,0.1055,0.9976,-0.06,0.00,-0.06,4.62,1.54,48.69
13.474704,-0.0132,0.1045,0.9980,0.00,0.00,-0.06,4.62,1.54,48.69
13.474704,-0.0127,0.1060,0.9976,0.06,0.00,-0.12,4.61,1.54,48.69
13.504711,-0.0137,0.1060,0.9980,0.06,0.00,-0.12,4.61,1.54,48.69
13.504711,-0.0132,0.1064,0.9976,0.00,0.00,-0.12,4.61,1.54,48.69
13.534618,-0.0137,0.1069,0.9985,0.00,0.00,-0.12,4.61,1.54,48.69
13.534618,-0.0132,0.1069,0.9980,-0.06,0.00,-0.12,4.61,1.54,48.69
13.592660,-0.0127,0.1055,0.9976,0.00,0.00,-0.12,4.62,1.54,48.69
13.592660,-0.0137,0.1055,0.9971,0.00,0.00,-0.12,4.62,1.54,48.69
13.621865,-0.0122,0.1060,0.9971,0.00,0.00,-0.12,4.62,1.54,48.69
13.621865,-0.0127,0.1069,0.9980,-0.06,0.00,-0.06,4.62,1.54,48.69
13.652636,-0.0132,0.1064,0.9976,-0.12,0.00,-0.06,4.62,1.54,48.69
13.652636,-0.0127,0.1045,0.9976,-0.12,0.00,-0.06,4.62,1.54,48.69
13.712689,-0.0122,0.1060,0.9980,-0.06,0.00,0.00,4.62,1.54,48.69
13.712689,-0.0127,0.1060,0.9976,0.00,0.00,-0.12,4.62,1.54,48.69
13.743070,-0.0127,0.1055,0.9985,-0.06,0.00,-0.06,4.62,1.54,48.69
13.743070,-0.0132,0.1060,0.9980,-0.06,0.00,-0.06,4.62,1.54,48.69
13.771914,-0.0122,0.1064,0.9980,-0.06,0.00,-0.06,4.62,1.54,48.69
13.771914,-0.0142,0.1064,0.9980,0.00,0.06,-0.06,4.62,1.54,48.69
13.832695,-0.0142,0.1055,0.9985,-0.06,0.00,-0.06,4.62,1.54,48.69
13.832695,-0.0142,0.1045,0.9980,-0.06,0.00,-0.18,4.62,1.54,48.69
13.862842,-0.0142,0.1060,0.9976,0.00,0.06,-0.12,4.62,1.54,48.69
13.862842,-0.0137,0.1060,0.9976,0.00,0.00,-0.12,4.62,1.54,48.69
13.922787,-0.0127,0.1060,0.9976,0.00,0.00,-0.12,4.61,1.54,48.69
13.922787,-0.0132,0.1060,0.9980,0.00,0.00,0.00,4.61,1.54,48.69
13.951881,-0.0137,0.1055,0.9976,0.00,0.00,-0.18,4.61,1.54,48.69
13.951881,-0.0132,0.1064,0.9971,0.00,0.00,-0.12,4.61,1.54,48.69
13.982644,-0.0137,0.1060,0.9966,0.00,0.00,-0.06,4.61,1.54,48.69
13.982644,-0.0142,0.1064,0.9980,0.06,0.00,-0.12,4.61,1.54,48.69
14.042940,-0.0137,0.1060,0.9976,0.06,0.00,-0.18,4.61,1.54,48.69
14.042940,-0.0137,0.1060,0.9980,0.00,-0.06,-0.06,4.61,1.54,48.69
14.111702,-0.0137,0.1060,0.9966,0.00,0.00,-0.12,4.61,1.54,48.69
14.111702,-0.0137,0.1069,0.9985,0.00,0.00,-0.06,4.61,1.54,48.69
14.111725,-0.0137,0.1074,0.9971,0.00,0.00,-0.06,4.61,1.54,48.69
14.111725,-0.0127,0.1060,0.9976,-0.06,0.00,-0.06,4.61,1.54,48.69
14.162568,-0.0127,0.1060,0.9980,-0.06,0.00,-0.06,4.61,1.54,48.69
14.162568,-0.0122,0.1060,0.9985,0.00,0.00,-0.06,4.62,1.54,48.69
14.194543,-0.0122,0.1064,0.9985,-0.06,0.00,-0.12,4.62,1.54,48.69
14.194543,-0.0122,0.1060,0.9980,-0.06,0.00,-0.06,4.62,1.54,48.69
14.222649,-0.0122,0.1060,0.9980,-0.06,0.00,-0.06,4.62,1.54,48.69
14.222649,-0.0127,0.1060,0.9976,-0.06,0.00,-0.06,4.62,1.54,48.69
14.282701,-0.0127,0.1050,0.9980,-0.12,0.00,-0.06,4.62,1.54,48.69
14.282701,-0.0122,0.1050,0.9976,-0.06,0.00,0.00,4.62,1.54,48.69
14.311895,-0.0132,0.1060,0.9966,0.00,0.00,-0.12,4.62,1.54,48.69
14.311895,-0.0132,0.1064,0.9961,0.00,0.06,-0.06,4.61,1.54,48.69
14.342917,-0.0137,0.1069,0.9966,0.00,0.00,-0.06,4.61,1.54,48.69
14.342917,-0.0137,0.1060,0.9971,0.00,0.00,-0.06,4.62,1.54,48.69
14.402806,-0.0137,0.1055,0.9961,-0.06,0.00,-0.06,4.62,1.54,48.69
14.402806,-0.0137,0.1060,0.9966,-0.06,0.00,-0.06,4.62,1.54,48.69
14.431879,-0.0132,0.1060,0.9966,-0.06,0.06,-0.06,4.62,1.54,48.69
14.431879,-0.0132,0.1060,0.9976,0.00,0.00,-0.06,4.62,1.54,48.69
14.462651,-0.0142,0.1055,0.9985,0.00,0.00,-0.06,4.62,1.54,48.69
14.462651,-0.0146,0.1050,0.9976,-0.06,0.00,-0.18,4.62,1.54,48.69
14.522845,-0.0142,0.1064,0.9980,0.00,0.00,-0.12,4.62,1.54,48.69
14.522845,-0.0137,0.1064,0.9971,0.00,0.00,-0.06,4.62,1.54,48.69
14.551931,-0.0132,0.1060,0.9976,-0.06,0.00,-0.06,4.62,1.54,48.69
14.551931,-0.0127,0.1060,0.9971,0.00,0.00,0.00,4.62,1.54,48.69
14.582668,-0.0137,0.1064,0.9976,0.00,0.00,-0.06,4.62,1.54,48.69
14.582668,-0.0142,0.1060,0.9980,-0.06,0.00,-0.06,4.62,1.54,48.69
14.642944,-0.0132,0.1069,0.9971,-0.06,0.00,-0.06,4.62,1.54,48.69
14.642944,-0.0127,0.1060,0.9971,0.00,0.00,-0.06,4.62,1.54,48.69
14.671964,-0.0122,0.1064,0.9980,0.00,0.00,-0.06,4.62,1.54,48.69
14.671964,-0.0117,0.1060,0.9966,0.00,0.00,-0.06,4.62,1.54,48.69
14.702826,-0.0127,0.1064,0.9976,0.00,0.00,-0.06,4.62,1.54,48.69
14.702826,-0.0122,0.1050,0.9976,0.00,0.00,-0.06,4.62,1.54,48.69
14.762746,-0.0122,0.1050,0.9976,0.00,0.00,-0.06,4.62,1.54,48.69
14.762746,-0.0122,0.1060,0.9976,-0.06,0.00,-0.12,4.62,1.54,48.69
14.791830,-0.0127,0.1060,0.9980,-0.06,0.00,-0.12,4.62,1.54,48.69
14.791830,-0.0122,0.1064,0.9980,0.00,0.06,-0.12,4.62,1.54,48.69
14.822667,-0.0127,0.1055,0.9980,0.00,0.00,-0.12,4.62,1.54,48.69
14.822667,-0.0132,0.1055,0.9980,0.00,0.00,-0.12,4.62,1.54,48.69
14.882702,-0.0122,0.1060,0.9980,0.00,0.00,-0.06,4.62,1.54,48.69
14.882702,-0.0137,0.1069,0.9976,-0.06,0.00,-0.06,4.62,1.54,48.69
14.911920,-0.0127,0.1064,0.9980,0.00,0.00,-0.12,4.62,1.54,48.69
14.911920,-0.0132,0.1055,0.9971,0.00,0.00,-0.06,4.62,1.54,48.69
14.942941,-0.0132,0.1064,0.9976,-0.06,0.00,0.00,4.62,1.54,48.69
14.942941,-0.0137,0.1064,0.9976,0.00,0.00,-0.12,4.62,1.54,48.69
15.002893,-0.0132,0.1060,0.9976,0.00,0.06,0.00,4.62,1.54,48.69
15.002893,-0.0132,0.1064,0.9971,-0.06,0.00,-0.12,4.62,1.54,48.69
15.031929,-0.0142,0.1074,0.9980,0.00,0.00,-0.06,4.62,1.54,48.69
15.031929,-0.0146,0.1069,0.9976,-0.06,0.00,-0.12,4.62,1.54,48.69
15.062641,-0.0146,0.1069,0.9976,0.00,0.00,-0.06,4.62,1.54,48.69
15.062641,-0.0137,0.1060,0.9980,0.00,0.00,-0.06,4.62,1.54,48.69
15.123796,-0.0132,0.1055,0.9976,0.00,0.00,-0.06,4.62,1.54,48.69
15.123796,-0.0122,0.1064,0.9985,-0.06,0.00,0.00,4.62,1.54,48.69
15.151838,-0.0132,0.1064,0.9980,0.00,0.00,-0.06,4.62,1.54,48.69
15.151838,-0.0127,0.1055,0.9980,0.00,0.00,-0.06,4.62,1.54,48.69
15.182609,-0.0137,0.1055,0.9990,0.00,-0.06,-0.12,4.62,1.54,48.69
15.182609,-0.0127,0.1055,0.9990,0.00,0.00,-0.06,4.62,1.54,48.69
15.243039,-0.0127,0.1055,0.9980,0.00,0.00,-0.12,4.62,1.54,48.69
15.243039,-0.0127,0.1060,0.9985,0.00,0.00,-0.12,4.62,1.54,48.69
15.271900,-0.0122,0.1069,0.9980,-0.06,0.00,-0.06,4.62,1.54,48.69
15.271900,-0.0122,0.1060,0.9985,0.00,0.00,-0.06,4.62,1.54,48.69
15.332714,-0.0122,0.1064,0.9976,0.00,0.00,-0.12,4.62,1.54,48.69
15.332714,-0.0127,0.1055,0.9980,0.00,0.00,-0.06,4.62,1.54,48.69
15.361913,-0.0122,0.1060,0.9980,-0.06,0.00,-0.12,4.62,1.54,48.69
15.361913,-0.0127,0.1060,0.9966,0.00,0.00,-0.12,4.62,1.54,48.69
15.392676,-0.0127,0.1055,0.9971,0.00,0.00,-0.12,4.62,1.54,48.69
15.392676,-0.0137,0.1064,0.9985,0.00,0.00,-0.06,4.62,1.54,48.69
15.453139,-0.0132,0.1060,0.9971,0.00,0.00,-0.06,4.62,1.54,48.69
15.453139,-0.0132,0.1060,0.9976,0.00,0.00,-0.06,4.62,1.54,48.69
15.484779,-0.0142,0.1050,0.9976,0.00,0.00,-0.06,4.62,1.54,48.69
15.484779,-0.0137,0.1060,0.9980,0.00,0.00,-0.06,4.62,1.54,48.69
15.512868,-0.0142,0.1064,0.9976,0.00,0.00,-0.12,4.62,1.54,48.69
15.512868,-0.0137,0.1064,0.9966,0.00,0.00,-0.06,4.62,1.54,48.69
15.572818,-0.0132,0.1064,0.9976,0.00,0.00,-0.12,4.62,1.54,48.69
15.572818,-0.0137,0.1055,0.9980,0.00,0.00,-0.06,4.62,1.54,48.69
15.601966,-0.0132,0.1060,0.9976,0.00,0.00,-0.06,4.62,1.54,48.69
15.601966,-0.0132,0.1069,0.9971,0.00,0.00,-0.06,4.62,1.54,48.69
15.632728,-0.0137,0.1064,0.9971,0.00,-0.06,-0.12,4.62,1.54,48.69
15.632728,-0.0137,0.1064,0.9971,-0.06,0.00,-0.12,4.62,1.54,48.69
15.692825,-0.0132,0.1060,0.9956,0.00,0.00,0.00,4.62,1.54,48.69
15.692825,-0.0132,0.1050,0.9976,0.00,0.00,-0.06,4.62,1.54,48.69
15.721970,-0.0127,0.1064,0.9976,0.00,0.00,-0.12,4.62,1.54,48.69
15.721970,-0.0127,0.1069,0.9971,0.00,0.00,-0.06,4.62,1.54,48.69
15.752734,-0.0132,0.1055,0.9976,0.00,0.00,-0.06,4.62,1.54,48.69
15.752734,-0.0127,0.1064,0.9966,-0.06,0.00,-0.06,4.62,1.54,48.70
15.812732,-0.0127,0.1060,0.9966,0.00,0.00,-0.12,4.62,1.54,48.70
15.812732,-0.0127,0.1060,0.9971,0.00,0.00,-0.12,4.62,1.54,48.70
15.842290,-0.0132,0.1060,0.9976,0.00,0.00,-0.12,4.62,1.54,48.70
15.842290,-0.0127,0.1060,0.9976,0.00,0.00,-0.06,4.62,1.54,48.70
15.872858,-0.0132,0.1060,0.9966,0.00,0.00,-0.06,4.62,1.54,48.70
15.872858,-0.0127,0.1064,0.9980,0.00,0.00,-0.06,4.62,1.54,48.70
15.932734,-0.0132,0.1064,0.9976,-0.06,0.00,-0.06,4.62,1.54,48.70
15.932734,-0.0122,0.1060,0.9966,0.00,0.00,-0.06,4.62,1.54,48.70
15.961936,-0.0122,0.1064,0.9971,0.00,0.00,-0.06,4.62,1.54,48.70
15.961936,-0.0122,0.1060,0.9976,0.00,0.00,-0.06,4.62,1.54,48.70
15.992782,-0.0127,0.1064,0.9971,0.00,0.00,-0.06,4.62,1.54,48.70
15.992782,-0.0132,0.1064,0.9980,0.00,0.00,-0.12,4.62,1.54,48.70
16.052889,-0.0137,0.1074,0.9976,-0.06,0.00,-0.12,4.62,1.54,48.70
16.052889,-0.0132,0.1060,0.9976,-0.06,0.00,-0.12,4.62,1.54,48.70
16.082020,-0.0142,0.1060,0.9976,0.00,0.06,-0.06,4.62,1.54,48.70
16.082020,-0.0127,0.1064,0.9980,0.00,0.00,-0.06,4.62,1.54,48.70
16.145176,-0.0142,0.1064,0.9980,0.00,0.00,-0.12,4.62,1.54,48.70
16.145176,-0.0132,0.1069,0.9976,0.00,0.00,-0.12,4.62,1.54,48.70
16.172711,-0.0132,0.1060,0.9985,0.00,0.00,-0.12,4.62,1.54,48.70
16.172711,-0.0122,0.1060,0.9980,0.00,0.00,-0.12,4.62,1.54,48.70
16.204528,-0.0127,0.1060,0.9971,0.00,0.00,-0.06,4.62,1.54,48.70
16.204528,-0.0132,0.1069,0.9976,0.00,0.00,-0.06,4.62,1.54,48.70
16.232473,-0.0127,0.1064,0.9971,0.00,0.00,-0.12,4.62,1.54,48.70
16.232473,-0.0127,0.1064,0.9971,-0.06,0.00,-0.06,4.62,1.54,48.70
16.292748,-0.0127,0.1060,0.9980,0.00,-0.06,-0.18,4.62,1.54,48.70
16.292748,-0.0122,0.1060,0.9971,0.00,0.00,-0.06,4.62,1.54,48.70
16.321947,-0.0127,0.1060,0.9980,0.00,0.00,-0.12,4.62,1.54,48.70
16.321947,-0.0137,0.1064,0.9971,0.00,0.06,-0.12,4.62,1.54,48.70
16.352714,-0.0127,0.1060,0.9980,0.00,0.00,-0.12,4.62,1.54,48.70
16.352714,-0.0127,0.1069,0.9976,0.00,0.00,-0.12,4.62,1.54,48.70
16.412728,-0.0127,0.1064,0.9971,-0.06,0.00,-0.06,4.62,1.54,48.70
16.412728,-0.0127,0.1069,0.9976,0.00,0.00,-0.06,4.62,1.54,48.70
16.443001,-0.0132,0.1069,0.9976,-0.06,0.00,-0.06,4.62,1.54,48.70
16.443001,-0.0127,0.1064,0.9976,0.00,0.00,0.00,4.62,1.54,48.70
16.471943,-0.0137,0.1060,0.9966,0.00,0.00,-0.06,4.62,1.54,48.70
16.471943,-0.0137,0.1064,0.9976,-0.06,0.00,0.00,4.62,1.54,48.70
16.532898,-0.0137,0.1064,0.9980,0.00,0.00,-0.12,4.62,1.54,48.70
16.532898,-0.0137,0.1060,0.9971,0.00,0.00,-0.12,4.62,1.54,48.70
16.561996,-0.0127,0.1069,0.9976,0.00,0.00,-0.06,4.62,1.54,48.70
16.561996,-0.0132,0.1064,0.9980,0.00,0.00,-0.12,4.62,1.54,48.70
16.592769,-0.0137,0.1060,0.9976,0.00,0.00,-0.12,4.63,1.54,48.70
16.592769,-0.0137,0.1064,0.9976,0.00,0.00,-0.06,4.63,1.54,48.70
16.652737,-0.0122,0.1069,0.9976,0.00,0.00,-0.06,4.63,1.54,48.70
16.652737,-0.0127,0.1064,0.9976,-0.06,0.00,-0.12,4.63,1.54,48.70
16.683195,-0.0132,0.1064,0.9976,-0.06,0.00,-0.12,4.63,1.54,48.70
16.683195,-0.0132,0.1069,0.9985,0.00,0.00,-0.12,4.63,1.54,48.70
16.743064,-0.0132,0.1060,0.9976,0.00,0.00,-0.06,4.63,1.54,48.70
16.743064,-0.0127,0.1069,0.9966,0.00,0.00,-0.06,4.63,1.54,48.70
16.771966,-0.0132,0.1060,0.9966,0.00,0.00,-0.06,4.63,1.54,48.70
16.771966,-0.0137,0.1060,0.9971,0.00,0.00,-0.06,4.63,1.54,48.70
16.802890,-0.0127,0.1060,0.9980,-0.06,0.00,-0.06,4.63,1.54,48.70
16.802890,-0.0127,0.1064,0.9971,0.00,0.00,-0.12,4.63,1.54,48.70
16.862708,-0.0127,0.1060,0.9971,-0.06,0.00,-0.06,4.63,1.54,48.70
16.862708,-0.0132,0.1064,0.9976,-0.06,0.00,-0.06,4.63,1.54,48.70
16.892119,-0.0112,0.1069,0.9980,0.00,0.00,0.00,4.63,1.54,48.70
16.892119,-0.0132,0.1055,0.9980,-0.06,0.00,-0.12,4.63,1.54,48.70
16.922738,-0.0127,0.1064,0.9971,-0.06,0.00,-0.12,4.63,1.54,48.70
16.922738,-0.0127,0.1064,0.9980,0.00,0.00,-0.06,4.63,1.54,48.70
16.982801,-0.0137,0.1060,0.9985,-0.06,0.00,-0.06,4.63,1.54,48.70
16.982801,-0.0137,0.1060,0.9971,0.00,0.00,-0.06,4.63,1.54,48.70
17.011981,-0.0132,0.1060,0.9976,0.00,0.00,-0.06,4.63,1.54,48.70
17.011981,-0.0132,0.1055,0.9976,0.00,0.00,-0.06,4.63,1.54,48.70
17.043027,-0.0142,0.1064,0.9976,0.00,0.00,-0.06,4.63,1.54,48.70
17.043027,-0.0132,0.1060,0.9971,0.00,0.00,-0.18,4.63,1.54,48.70
17.104739,-0.0132,0.1060,0.9971,0.00,0.00,-0.12,4.63,1.54,48.70
17.104739,-0.0137,0.1060,0.9971,0.00,0.00,-0.12,4.63,1.54,48.70
17.170824,-0.0127,0.1069,0.9971,0.00,0.00,-0.12,4.63,1.54,48.70
17.170824,-0.0132,0.1055,0.9966,0.00,0.00,-0.12,4.63,1.54,48.70
17.170844,-0.0127,0.1060,0.9976,-0.06,0.00,-0.06,4.63,1.54,48.70
17.170844,-0.0122,0.1060,0.9976,0.00,0.00,-0.06,4.63,1.54,48.70
17.222704,-0.0137,0.1060,0.9980,0.00,0.00,-0.06,4.63,1.54,48.70
17.222704,-0.0127,0.1060,0.9976,0.00,0.00,-0.12,4.63,1.54,48.70
17.251935,-0.0112,0.1069,1.0010,-0.37,-0.92,-0.37,4.63,1.54,48.70
17.251935,-0.0156,0.1055,0.9995,-0.61,-0.73,-0.43,4.63,1.54,48.70
17.282758,-0.0117,0.1064,0.9985,-1.04,-0.85,-0.79,4.63,1.54,48.70
17.282758,-0.0103,0.1011,0.9995,0.12,-0.92,-0.18,4.63,1.54,48.70
17.343059,-0.0107,0.1055,0.9990,0.06,0.24,0.00,4.63,1.54,48.70
17.343059,-0.0098,0.1064,0.9995,0.00,0.49,0.00,4.63,1.54,48.70
17.371993,-0.0132,0.1050,0.9971,0.31,1.16,0.24,4.63,1.54,48.70
17.371993,-0.0132,0.1060,0.9971,0.18,0.18,0.00,4.63,1.53,48.70
17.402890,-0.0142,0.1069,0.9971,0.12,-0.31,-0.12,4.63,1.53,48.70
17.402890,-0.0156,0.1025,0.9941,0.37,-1.34,-0.12,4.63,1.53,48.70
17.462786,-0.0073,0.1133,0.9927,0.06,-1.77,-0.55,4.64,1.51,48.69
17.462786,-0.0093,0.1035,0.9980,0.79,-3.72,-1.53,4.64,1.46,48.67
17.492261,-0.0093,0.1064,0.9971,-1.16,-2.14,-2.44,4.64,1.40,48.62
17.492261,-0.0122,0.1025,0.9966,-0.43,-0.49,-0.43,4.63,1.37,48.59
17.522933,-0.0049,0.1567,0.9858,0.00,3.54,0.37,4.67,1.40,48.55
17.522933,-0.0088,0.1011,1.0000,0.00,2.44,1.16,4.67,1.45,48.60
17.582790,-0.0103,0.1050,1.0015,-0.06,1.89,0.00,4.67,1.49,48.62
17.582790,-0.0137,0.1064,1.0015,-0.24,0.92,-0.37,4.67,1.52,48.62
17.612004,-0.0166,0.1069,0.9956,0.49,0.06,-0.31,4.67,1.53,48.61
17.612004,-0.0137,0.1099,0.9927,0.37,-0.67,0.06,4.69,1.53,48.61
17.643182,-0.0122,0.1108,0.9951,0.06,0.18,0.79,4.69,1.52,48.63
17.643182,-0.0122,0.1040,0.9971,1.04,0.37,0.85,4.70,1.52,48.65
17.702944,-0.0122,0.1094,1.0015,1.71,-0.06,0.18,4.74,1.53,48.66
17.702944,-0.0093,0.1104,0.9980,-0.79,0.24,0.18,4.74,1.53,48.67
17.731997,-0.0068,0.1099,1.0010,-0.92,1.77,1.22,4.72,1.54,48.69
17.731997,-0.0156,0.1016,1.0034,-0.49,3.11,3.72,4.70,1.59,48.75
17.762813,-0.0171,0.1064,1.0039,-0.37,1.53,6.65,4.70,1.63,48.86
17.762813,-0.0083,0.1157,1.0020,-3.91,1.34,9.40,4.66,1.64,49.02
17.822833,-0.0059,0.1299,1.0049,-10.31,-0.18,15.62,4.52,1.63,49.27
17.822833,-0.0244,0.1401,1.0195,-18.43,-4.58,23.01,4.24,1.54,49.67
17.852050,-0.0386,0.1191,1.0337,-31.13,-7.32,19.04,3.75,1.37,50.09
17.852050,-0.0732,0.0635,1.0562,-45.78,-7.87,18.19,2.98,1.18,50.43
17.882791,-0.0581,0.0117,1.0781,-66.16,-4.39,20.81,1.85,1.03,50.84
17.882791,-0.0366,0.0464,1.1060,-76.17,2.93,7.32,0.40,1.00,51.12
17.943048,-0.0552,0.0752,1.1753,-59.88,7.75,-1.71,-1.01,1.12,51.16
17.943048,-0.0479,0.0532,1.1963,-30.46,7.39,-7.81,-1.88,1.27,51.06
17.971974,-0.0054,-0.0054,1.1646,-3.72,7.32,-13.73,-2.19,1.42,50.84
17.971974,0.0083,-0.0049,1.1787,8.00,8.00,-14.28,-2.11,1.57,50.55
18.002936,0.0000,0.0078,1.2451,18.49,4.27,-6.41,-1.86,1.69,50.33
18.002936,0.0151,-0.0151,1.2666,22.71,2.08,0.24,-1.42,1.75,50.30
18.062808,0.0200,0.0112,1.2925,18.49,2.14,-2.56,-1.01,1.79,50.28
18.062808,0.0249,0.0410,1.3013,8.54,-0.79,-2.87,-0.75,1.81,50.22
18.092082,0.0078,0.0757,1.3115,0.12,-3.05,-2.56,-0.66,1.76,50.17
18.092082,-0.0522,0.0850,1.3516,1.53,-2.38,-5.98,-0.67,1.71,50.09
18.152936,-0.0796,0.0317,1.3076,3.85,1.83,-5.68,-0.60,1.70,49.95
18.152936,-0.0933,0.0215,1.2871,-1.04,10.86,-2.44,-0.57,1.83,49.89
18.218176,-0.1006,0.0430,1.2734,-3.30,17.64,-8.61,-0.62,2.13,49.80
18.218176,-0.0879,0.0547,1.2549,0.06,23.13,-18.07,-0.66,2.54,49.53
18.218197,-0.0957,0.0210,1.2207,15.50,20.75,-15.62,-0.57,3.00,49.17
18.218197,-0.0820,0.0161,1.1489,24.54,9.64,-5.80,-0.12,3.31,48.98
18.272822,-0.0254,-0.0283,1.0771,21.91,-1.46,-6.77,0.35,3.39,48.87
18.272822,-0.0073,-0.0342,1.0508,17.46,-11.17,-6.65,0.73,3.25,48.71
18.304722,-0.0830,-0.0059,1.0273,21.42,-13.49,-2.14,1.10,2.99,48.65
18.304722,-0.0615,0.0010,0.9917,26.61,-2.81,-15.69,1.60,2.82,48.46
18.333018,-0.0220,0.0503,1.0259,20.39,5.80,-17.76,2.05,2.90,48.10
18.333018,-0.0093,0.0586,1.0396,24.48,2.44,-15.75,2.48,3.02,47.79
18.392914,-0.0103,0.0332,0.9849,29.42,1.77,-22.83,3.02,3.05,47.41
18.392914,-0.0269,0.0317,0.9858,25.88,9.22,-28.20,3.55,3.22,46.90
18.422036,-0.0156,0.0479,0.9814,25.09,10.80,-21.12,4.04,3.47,46.41
18.422036,-0.0161,0.0454,0.9590,21.36,9.40,-14.10,4.48,3.69,46.12
18.452791,0.0171,0.0508,0.9448,19.84,16.54,-17.64,4.90,3.99,45.83
18.452791,-0.0034,0.1079,0.9658,16.66,18.13,-17.40,5.22,4.39,45.52
18.512964,-0.0078,0.1172,0.9375,24.29,15.26,-18.74,5.62,4.76,45.20
18.512964,-0.0332,0.0879,0.8799,21.79,13.49,-17.15,6.07,5.10,44.87
18.543088,-0.0713,0.0586,0.8296,16.30,10.07,-10.31,6.44,5.37,44.64
18.543088,-0.1045,0.0635,0.8052,8.73,7.20,-10.56,6.66,5.55,44.48
18.572045,-0.1006,0.1074,0.8423,4.33,9.95,-18.43,6.77,5.77,44.20
18.572045,-0.1348,0.1250,0.8794,5.62,8.97,-13.92,6.83,6.01,43.90
18.632800,-0.1587,0.0840,0.8286,6.65,13.06,-4.39,6.96,6.24,43.75
18.632800,-0.1543,0.0713,0.7910,4.76,27.71,0.06,7.07,6.64,43.79
18.662797,-0.1016,0.1108,0.8203,3.66,46.88,-2.69,7.16,7.40,43.88
18.662797,-0.0581,0.1465,0.8550,10.38,51.03,1.34,7.30,8.40,44.01
18.692046,-0.0415,0.0996,0.7979,19.53,44.43,7.45,7.66,9.33,44.26
18.692046,-0.0386,0.0884,0.7368,17.82,39.67,6.47,8.09,10.13,44.55
18.752930,-0.0293,0.1362,0.7173,17.46,31.86,4.21,8.48,10.82,44.78
18.752930,-0.0410,0.1450,0.6948,19.41,18.92,4.58,8.88,11.30,44.96
18.782135,-0.0640,0.1455,0.6426,17.21,8.91,3.97,9.27,11.55,45.09
18.782135,-0.1113,0.1455,0.6040,13.06,5.31,2.08,9.60,11.66,45.19
18.812815,-0.1426,0.1567,0.5981,7.45,6.77,-1.34,9.80,11.78,45.21
18.812815,-0.1670,0.1479,0.5820,2.75,8.06,-1.59,9.90,11.93,45.21
18.872852,-0.1729,0.1875,0.5679,-4.15,9.09,0.67,9.89,12.10,45.25
18.872852,-0.1689,0.2085,0.5752,-5.98,10.44,0.00,9.79,12.29,45.30
18.902661,-0.1426,0.1938,0.6011,-7.14,8.97,-2.26,9.66,12.49,45.31
18.902661,-0.1274,0.1753,0.6489,-2.99,-2.08,1.16,9.55,12.58,45.31
18.932813,-0.1245,0.1631,0.6860,-2.08,-14.95,5.49,9.54,12.37,45.36
18.932813,-0.1274,0.1494,0.7197,-7.93,-13.24,5.74,9.43,12.04,45.40
18.992870,-0.1631,0.1675,0.8062,-20.75,-12.57,-0.43,9.11,11.77,45.41
18.992870,-0.1758,0.1821,0.8472,-19.29,-11.41,-1.83,8.70,11.54,45.34
19.022033,-0.1699,0.2222,0.8726,-17.15,-12.27,2.99,8.32,11.30,45.30
19.022033,-0.1792,0.2300,0.8594,-12.94,-7.93,2.08,8.01,11.09,45.34
19.052750,-0.1768,0.1660,0.8179,-2.93,-4.64,1.46,7.88,10.96,45.35
19.052750,-0.1426,0.0972,0.8052,-3.72,-1.28,3.36,7.83,10.89,45.39
19.112959,-0.1016,0.1421,0.8496,-11.17,2.81,2.44,7.68,10.90,45.46
19.112959,-0.0938,0.2109,0.8896,-3.11,0.18,-0.67,7.51,10.94,45.48
19.143223,-0.0781,0.1372,0.8398,5.31,-5.43,-4.52,7.54,10.89,45.42
19.143223,-0.0762,0.1016,0.7686,-1.71,-8.06,-0.37,7.60,10.76,45.33
19.174939,-0.0991,0.1470,0.7373,-12.02,-5.25,7.63,7.44,10.61,45.41
19.174939,-0.0898,0.1226,0.7720,-8.61,2.50,-1.28,7.25,10.56,45.48
19.237940,-0.1079,0.1396,0.8809,-5.00,6.90,-0.37,7.09,10.70,45.46
19.237940,-0.1221,0.0195,0.8638,6.29,-4.39,-0.79,7.14,10.71,45.47
19.262290,-0.1011,-0.0640,0.8550,-11.54,-5.92,-16.24,7.09,10.61,45.29
19.262290,-0.1494,0.0620,1.0029,-22.34,-8.30,-26.25,6.63,10.55,44.82
19.293101,-0.1572,0.1646,1.1016,-16.66,-19.47,-13.43,6.15,10.34,44.35
19.293101,-0.1636,0.1753,1.1021,-9.46,-27.22,12.27,5.89,9.84,44.30
19.352836,-0.2021,0.0991,1.0859,-1.95,-23.25,16.48,5.82,9.29,44.58
19.352836,-0.1592,-0.0176,0.9844,3.60,-14.47,-7.26,5.86,8.90,44.64
19.382080,-0.1548,-0.0044,1.0010,-11.84,-8.79,-22.46,5.74,8.74,44.25
19.382080,-0.1323,0.1294,1.0806,-15.93,-18.80,-12.45,5.38,8.52,43.86
19.412838,-0.0913,0.1304,1.0649,-11.90,-27.71,-3.42,5.08,8.05,43.67
19.412838,-0.0957,0.0586,1.0244,-17.03,-29.05,7.45,4.81,7.48,43.64
19.472920,-0.1050,0.0088,1.0073,-26.49,-29.17,15.69,4.39,6.87,43.84
19.472920,-0.0850,0.0308,1.0146,-34.24,-27.47,8.18,3.78,6.27,44.04
19.502198,-0.0981,0.1260,1.0557,-37.05,-27.59,0.79,3.06,5.72,44.07
19.502198,-0.1382,0.1816,1.0781,-25.33,-30.76,1.04,2.42,5.14,44.04
19.562901,-0.1494,0.0977,1.0527,-14.89,-30.70,6.96,2.05,4.52,44.07
19.562901,-0.1797,-0.0005,1.0464,-21.61,-26.00,18.86,1.71,3.93,44.31
19.592088,-0.1284,-0.0049,1.0903,-30.40,-16.36,17.21,1.20,3.47,44.69
19.592088,-0.0576,0.1211,1.1689,-31.80,-8.97,9.58,0.57,3.23,44.93
19.622890,-0.0347,0.1802,1.1938,-19.65,-13.61,10.93,0.05,3.01,45.12
19.622890,-0.0723,0.1094,1.1616,-5.31,-21.42,18.07,-0.17,2.64,45.40
19.682860,-0.1284,-0.0278,1.0962,-4.09,-18.19,22.16,-0.22,2.21,45.82
19.682860,-0.1504,-0.0059,1.1089,-13.49,-2.93,13.61,-0.41,1.99,46.19
19.712035,-0.0991,0.0869,1.2075,-12.27,8.24,2.32,-0.66,2.06,46.33
19.712035,-0.0327,0.1514,1.2671,0.55,5.43,-4.46,-0.85,2.23,46.30
19.743134,-0.0391,0.0205,1.2227,8.54,2.14,2.75,-0.68,2.29,46.27
19.743134,-0.0513,-0.0093,1.1582,-4.39,2.56,16.66,-0.65,2.33,46.49
19.802973,-0.0400,0.0308,1.1353,-7.14,2.38,13.37,-0.77,2.38,46.81
19.802973,-0.0112,0.0479,1.1650,-2.75,2.81,4.58,-0.86,2.43,46.99
19.832063,0.0156,0.0693,1.1763,4.15,1.53,2.62,-0.86,2.48,47.05
19.832063,-0.0195,0.0371,1.1377,7.75,-0.55,4.58,-0.72,2.48,47.13
19.862853,-0.0205,0.0083,1.1050,3.85,3.17,0.24,-0.59,2.50,47.19
19.862853,0.0054,0.0254,1.1064,1.89,5.92,-3.91,-0.56,2.60,47.14
19.922902,0.0020,0.0317,1.1079,3.54,4.94,-0.79,-0.49,2.71,47.09
19.922902,0.0127,0.0483,1.0908,3.72,3.54,1.46,-0.42,2.79,47.12
19.952087,-0.0142,0.0542,1.0542,5.25,4.76,-2.87,-0.34,2.87,47.11
19.952087,-0.0303,-0.0142,1.0088,7.57,6.04,-5.68,-0.20,2.98,47.03
19.982894,-0.0088,-0.0425,1.0103,0.79,8.06,-7.32,-0.12,3.14,46.90
19.982894,0.0029,0.0273,1.0532,-3.54,5.86,-7.26,-0.16,3.28,46.76
20.043249,-0.0220,0.0640,1.0630,0.79,-0.43,-3.85,-0.20,3.34,46.64
20.043249,-0.0620,0.0063,1.0073,3.97,-1.59,-2.14,-0.14,3.30,46.59
20.072123,-0.0659,-0.0405,0.9688,0.31,0.00,-2.56,-0.10,3.29,46.55
20.072123,-0.0767,-0.0391,0.9839,-5.92,-0.06,-2.20,-0.16,3.29,46.50
20.103041,-0.0684,0.0098,1.0176,-9.28,-0.18,-1.65,-0.32,3.29,46.47
20.103041,-0.0703,0.0513,1.0527,-5.49,-0.67,-0.79,-0.49,3.28,46.44
20.162865,-0.0688,0.0249,1.0420,0.98,-1.40,0.00,-0.52,3.26,46.43
20.162865,-0.0518,0.0020,1.0215,0.00,-1.10,-0.18,-0.49,3.23,46.44
20.192073,-0.0479,-0.0083,1.0244,-0.85,-1.10,-1.04,-0.51,3.21,46.42
20.192073,-0.0435,0.0044,1.0347,-2.81,-2.81,2.50,-0.54,3.17,46.44
20.253960,-0.0376,0.0449,1.0605,0.00,-2.01,-0.12,-0.58,3.12,46.47
20.253960,-0.0483,0.0356,1.0615,5.62,-0.73,-2.01,-0.51,3.09,46.45
20.282884,-0.0591,-0.0063,1.0386,3.72,2.50,-2.75,-0.41,3.11,46.40
20.282884,-0.0415,-0.0112,1.0356,-2.44,2.87,-1.89,-0.40,3.17,46.36
20.312009,-0.0518,0.0283,1.0732,-3.54,0.24,-0.85,-0.47,3.20,46.33
20.312009,-0.0757,0.0312,1.0874,-1.34,0.73,-1.04,-0.52,3.20,46.32
20.343104,-0.0845,0.0317,1.1118,-1.65,3.48,-3.72,-0.55,3.25,46.27
20.343104,-0.0698,0.0327,1.1411,-2.69,2.56,-3.23,-0.59,3.32,46.20
20.403022,-0.0640,0.0469,1.1895,-4.21,-0.85,-0.61,-0.67,3.34,46.16
20.403022,-0.0630,0.0308,1.2251,-2.08,-4.46,1.22,-0.73,3.27,46.18
20.432089,-0.0332,0.0371,1.2656,-6.16,-3.54,-1.10,-0.82,3.19,46.18
20.432089,0.0068,0.0654,1.3013,-6.41,-7.02,-1.59,-0.94,3.10,46.15
20.462847,-0.0391,-0.0034,1.2661,-6.23,-15.93,6.41,-1.07,2.86,46.19
20.462847,-0.0610,-0.1255,1.1611,-19.53,-16.54,11.72,-1.29,2.52,46.39
20.523013,-0.0049,-0.1567,1.1426,-41.50,-12.45,10.56,-1.90,2.23,46.62
20.523013,0.0591,-0.1030,1.2148,-62.50,-12.70,9.09,-2.96,1.99,46.83
20.553295,0.1299,0.0405,1.3472,-63.35,-15.44,2.26,-4.25,1.71,46.95
20.553295,0.0781,0.1084,1.4170,-49.32,-14.28,4.27,-5.38,1.40,47.02
20.582095,-0.0591,-0.0532,1.3345,-45.96,-2.93,11.29,-6.34,1.24,47.20
20.582095,-0.1201,-0.1406,1.2046,-12.21,7.69,3.60,-6.92,1.31,47.36
20.643161,-0.0811,-0.1558,1.1426,3.36,17.40,-5.07,-6.98,1.57,47.31
20.643161,-0.0112,-0.1133,1.1729,13.73,16.30,-4.94,-6.79,1.92,47.16
20.672156,0.0181,-0.0298,1.2314,28.75,5.43,-4.33,-6.39,2.13,47.06
20.672156,-0.0303,-0.0259,1.1953,43.82,-5.68,-5.25,-5.62,2.10,46.96
20.703005,-0.1572,-0.1152,1.1055,43.03,-4.33,-0.55,-4.73,1.97,46.91
20.703005,-0.2148,-0.0991,1.0718,33.39,16.11,-2.75,-3.97,2.08,46.89
20.762975,-0.1494,-0.0547,1.0908,33.20,33.26,-11.96,-3.32,2.60,46.71
20.762975,-0.0142,-0.0269,1.1055,37.05,25.88,-16.85,-2.63,3.23,46.40
20.792111,0.0371,-0.0254,1.1201,36.80,5.25,-18.19,-1.89,3.53,46.04
20.792111,0.0396,-0.0225,1.0933,42.48,-13.12,-25.70,-1.14,3.42,45.61
20.822862,-0.0767,0.0044,1.0767,45.78,-20.26,-26.00,-0.27,3.07,45.06
20.822862,-0.2329,-0.0112,0.9946,39.73,-3.78,-10.93,0.60,2.81,44.69
20.882880,-0.2544,-0.0269,0.9287,39.37,31.13,-9.83,1.37,3.09,44.52
20.882880,-0.1235,-0.0396,0.9219,32.17,55.85,-15.81,2.08,4.03,44.32
20.912093,0.0391,-0.0283,0.9219,25.51,49.87,-15.69,2.63,5.16,44.07
20.912093,0.1221,0.0049,0.9224,23.86,21.30,-17.64,3.09,5.91,43.80
20.974843,0.1255,0.0630,0.9199,22.22,-15.50,-22.28,3.53,5.96,43.40
20.974843,-0.0332,0.1104,0.9409,22.40,-31.86,-25.33,3.92,5.48,42.86
21.004898,-0.1831,0.0698,0.9014,26.00,-21.24,-21.48,4.37,4.96,42.34
21.004898,-0.2207,0.0103,0.8667,21.06,7.51,-16.42,4.82,4.87,41.95
21.032795,-0.1392,0.0449,0.8799,14.34,36.25,-10.99,5.15,5.36,41.74
21.032795,-0.0801,0.1250,0.9448,15.99,50.90,-9.03,5.43,6.30,41.65
21.093085,-0.0332,0.1558,0.9194,24.05,48.03,-3.66,5.83,7.31,41.65
21.093085,-0.0352,0.1260,0.8452,32.59,38.15,0.49,6.42,8.16,41.74
21.122934,-0.0596,0.0830,0.7656,35.28,31.31,0.92,7.12,8.84,41.86
21.122934,-0.0957,0.0586,0.7051,34.91,27.59,3.17,7.86,9.41,42.00
21.152027,-0.0957,0.0835,0.6704,29.97,26.49,5.19,8.53,9.92,42.18
21.152027,-0.1035,0.0991,0.6514,25.27,25.27,6.59,9.12,10.41,42.39
21.212938,-0.1172,0.1489,0.6582,20.32,22.34,7.63,9.60,10.85,42.63
21.212938,-0.1323,0.1797,0.6514,18.13,17.09,9.52,10.03,11.21,42.88
21.275374,-0.1538,0.1948,0.6348,15.56,11.47,10.25,10.42,11.44,43.14
21.275374,-0.1699,0.2017,0.6040,11.96,7.32,9.52,10.74,11.57,43.39
21.275392,-0.1938,0.2012,0.5830,8.42,5.80,8.79,10.98,11.66,43.59
21.275392,-0.1836,0.1973,0.5811,3.72,5.25,10.13,11.13,11.73,43.81
21.332805,-0.1460,0.2070,0.5874,-2.81,5.68,8.67,11.19,11.79,44.03
21.332805,-0.1196,0.2344,0.6143,-5.55,1.34,8.00,11.13,11.83,44.21
21.362060,-0.1089,0.2046,0.6108,-8.06,-3.11,6.23,11.03,11.78,44.35
21.362060,-0.1089,0.2046,0.6094,-12.33,-6.23,3.60,10.83,11.67,44.43
21.393145,-0.1040,0.1685,0.5889,-15.93,-11.11,1.34,10.55,11.49,44.45
21.393145,-0.0967,0.1372,0.6055,-24.72,-15.75,-2.44,10.14,11.22,44.37
21.452888,-0.1216,0.1885,0.6860,-29.42,-21.67,-2.93,9.55,10.86,44.24
21.452888,-0.1250,0.1875,0.7310,-31.56,-24.66,-3.17,8.93,10.41,44.10
21.483831,-0.1323,0.1978,0.7939,-33.33,-26.37,-4.03,8.24,9.92,43.94
21.483831,-0.1675,0.2085,0.8462,-30.27,-28.14,-3.54,7.58,9.39,43.77
21.512983,-0.2075,0.1816,0.8442,-25.94,-27.40,1.59,7.00,8.84,43.67
21.512983,-0.2061,0.1182,0.8076,-24.66,-19.17,6.35,6.51,8.36,43.69
21.572905,-0.1187,0.1035,0.8091,-28.75,-10.13,6.47,5.99,8.06,43.79
21.572905,-0.0322,0.1509,0.8711,-26.92,-13.67,5.31,5.43,7.84,43.88
21.602078,-0.0381,0.1216,0.9014,-19.29,-25.82,7.63,4.99,7.42,43.96
21.602078,-0.1025,0.0547,0.8867,-19.65,-28.08,10.13,4.62,6.84,44.08
21.633014,-0.1104,0.0371,0.8794,-23.62,-19.41,7.87,4.21,6.35,44.21
21.633014,-0.0576,0.0488,0.9146,-24.17,-16.24,8.54,3.73,5.99,44.35
21.692892,-0.0269,0.0391,0.9443,-24.05,-20.51,9.70,3.26,5.62,44.50
21.692892,-0.0273,0.0322,0.9707,-23.25,-21.48,10.44,2.81,5.16,44.68
21.722130,-0.0562,0.0640,1.0210,-21.24,-11.90,6.23,2.36,4.82,44.84
21.722130,-0.0679,0.0244,1.0483,-11.41,-8.61,2.32,2.06,4.63,44.90
21.752944,-0.0820,-0.0391,1.0259,-15.14,-12.27,7.63,1.81,4.42,44.97
21.752944,-0.0889,0.0142,1.0249,-20.32,-10.44,11.66,1.46,4.16,45.17
21.813247,-0.0566,0.0635,1.0249,-14.10,-1.83,9.95,1.12,4.03,45.38
21.813247,0.0010,0.0220,1.0332,-7.08,-1.89,4.21,0.92,4.00,45.54
21.875101,-0.0156,-0.0200,1.0693,-6.77,-10.93,4.64,0.81,3.89,45.60
21.875101,-0.0479,-0.0498,1.0381,-4.27,-14.16,5.86,0.70,3.60,45.70
21.875219,-0.0312,-0.0703,1.0063,-12.76,-7.32,2.99,0.53,3.37,45.80
21.875219,0.0225,-0.0122,1.0278,-15.44,0.24,-9.46,0.22,3.32,45.74
21.932894,0.0464,0.0171,1.0806,-12.57,-0.43,-12.51,-0.05,3.35,45.49
21.932894,-0.0020,0.0366,1.1235,-11.84,-13.18,4.52,-0.31,3.22,45.40
21.962140,-0.0308,0.0200,1.0732,-10.38,-19.53,18.98,-0.51,2.85,45.67
21.962140,-0.0239,0.0220,1.0532,-11.23,-11.17,12.70,-0.72,2.54,46.01
21.992983,0.0000,0.0342,1.0737,-7.20,-7.69,5.49,-0.90,2.37,46.16
21.992983,0.0044,0.0518,1.0947,-1.46,-13.73,7.08,-0.99,2.15,46.29
22.053657,-0.0288,0.0000,1.0601,5.13,-17.46,7.81,-0.93,1.82,46.44
22.053657,-0.0239,-0.0425,1.0107,0.06,-13.18,5.49,-0.86,1.51,46.58
22.086802,0.0039,-0.0156,1.0156,-7.57,-6.65,1.95,-0.95,1.31,46.65
22.086802,-0.0190,0.0244,1.0708,-7.69,-4.15,-1.28,-1.11,1.21,46.65
22.115217,-0.0469,0.0337,1.1089,-3.23,-6.90,-5.00,-1.22,1.11,46.59
22.115217,-0.0620,-0.0127,1.0962,-0.85,-10.50,-5.80,-1.24,0.93,46.47
22.172977,-0.0693,0.0039,1.0928,-5.86,-10.93,-1.83,-1.32,0.71,46.40
22.172977,-0.0903,0.0400,1.0889,-2.81,-6.96,0.06,-1.43,0.52,46.40
22.202091,-0.0488,0.0610,1.0723,8.24,0.18,-10.80,-1.37,0.46,46.29
22.202091,-0.0215,0.0415,1.0669,14.10,4.82,-16.54,-1.13,0.53,45.99
22.232860,-0.0112,-0.0239,1.0610,11.66,-0.37,-1.10,-0.85,0.59,45.79
22.232860,-0.0127,-0.0112,1.0586,-0.12,-6.53,15.01,-0.74,0.50,45.98
22.303205,-0.0283,0.0513,1.0737,2.20,-5.92,12.39,-0.75,0.37,46.26
22.303205,-0.0063,0.0278,1.0811,7.63,-3.17,7.08,-0.64,0.27,46.46
22.322100,0.0117,0.0020,1.0933,7.81,0.37,4.46,-0.47,0.25,46.57
22.322100,-0.0059,0.0166,1.0977,6.23,0.73,5.49,-0.34,0.26,46.67
22.382914,-0.0181,0.0571,1.1177,9.22,1.04,3.60,-0.19,0.28,46.77
22.382914,-0.0312,0.0601,1.1113,15.08,0.67,3.54,0.06,0.30,46.83
22.413230,-0.0283,0.0186,1.0635,14.40,0.24,6.59,0.37,0.30,46.94
22.413230,0.0059,-0.0171,1.0503,7.87,0.24,10.44,0.60,0.30,47.12
22.444904,0.0234,0.0068,1.0864,-0.18,2.20,5.68,0.66,0.32,47.29
22.444904,0.0293,0.0630,1.1382,1.22,1.22,2.32,0.66,0.36,47.36
22.503215,0.0459,0.0820,1.1245,2.20,-1.65,3.48,0.70,0.35,47.42
22.503215,0.0415,0.0728,1.0938,7.20,-4.76,3.66,0.79,0.28,47.50
22.532358,0.0288,0.0415,1.0615,8.73,-4.21,1.34,0.96,0.18,47.55
22.532358,0.0093,0.0259,1.0601,9.40,-0.98,-2.75,1.14,0.13,47.54
22.562968,-0.0029,0.0435,1.0645,5.31,0.92,-3.17,1.30,0.14,47.47
22.562968,-0.0225,0.0737,1.0732,1.53,1.04,-0.18,1.35,0.16,47.44
22.622917,-0.0015,0.0557,1.0640,-0.43,0.43,1.77,1.37,0.18,47.46
22.622917,0.0059,0.0459,1.0425,-5.62,1.71,1.59,1.31,0.19,47.50
22.652127,0.0181,0.0879,1.0444,-7.75,5.49,-3.48,1.16,0.27,47.49
22.652127,0.0464,0.1216,1.0684,-1.77,5.62,-9.22,1.05,0.40,47.37
22.682913,0.0166,0.1001,1.0815,9.03,1.53,-9.52,1.14,0.48,47.17
22.682913,-0.0190,0.0068,1.0161,11.84,1.22,-2.81,1.38,0.49,47.05
22.742954,-0.0269,0.0083,0.9868,2.81,6.41,-3.97,1.52,0.58,47.01
22.742954,-0.0249,0.0327,0.9927,-0.06,9.34,-5.98,1.54,0.75,46.91
22.773374,0.0044,0.0527,1.0161,-1.95,7.14,-6.35,1.52,0.92,46.80
22.773374,0.0103,0.0869,1.0444,1.28,3.97,-8.06,1.51,1.03,46.66
22.802218,0.0078,0.0811,1.0405,6.29,3.23,-11.66,1.59,1.12,46.47
22.802218,-0.0347,0.0474,1.0127,6.16,5.25,-10.13,1.72,1.21,46.25
22.862989,-0.0352,0.0356,0.9858,3.66,5.43,-4.39,1.81,1.33,46.12
22.862989,-0.0337,0.0513,1.0029,6.96,3.78,-5.00,1.91,1.43,46.03
22.892158,-0.0278,0.0356,1.0137,7.45,2.14,-3.72,2.07,1.49,45.95
22.892158,-0.0234,0.0205,0.9995,1.40,1.59,-0.12,2.16,1.53,45.92
22.923022,-0.0200,0.0557,1.0161,-4.15,2.32,-0.79,2.12,1.57,45.92
22.923022,-0.0293,0.0654,1.0161,-3.66,0.43,1.22,2.04,1.60,45.92
22.983048,-0.0273,0.0298,0.9863,-5.37,0.31,2.38,1.96,1.60,45.97
22.983048,-0.0181,0.0430,0.9980,-10.13,1.65,1.34,1.80,1.62,46.01
23.012457,-0.0234,0.0854,1.0303,-7.32,2.32,-0.31,1.61,1.66,46.02
23.012457,-0.0093,0.0630,1.0146,-2.44,1.40,-0.06,1.53,1.70,46.02
23.042155,-0.0068,0.0508,1.0068,-3.48,1.10,-1.22,1.47,1.72,46.01
23.042155,-0.0249,0.0659,1.0293,-2.87,1.53,-2.32,1.40,1.75,45.98
23.103395,-0.0439,0.0723,1.0352,-2.50,2.26,-1.04,1.35,1.80,45.94
23.103395,-0.0386,0.0586,1.0200,-1.22,3.54,-1.34,1.31,1.86,45.93
23.133341,-0.0254,0.0439,1.0127,-1.89,2.93,0.00,1.29,1.93,45.92
23.133341,-0.0088,0.0659,1.0239,-1.10,0.67,1.46,1.25,1.97,45.94
23.162269,-0.0088,0.0527,1.0190,2.44,-1.89,2.14,1.27,1.94,45.98
23.162269,-0.0225,0.0479,1.0029,0.79,-1.40,2.14,1.31,1.91,46.03
23.222932,-0.0396,0.0557,1.0054,2.56,0.61,-0.24,1.34,1.90,46.04
23.222932,-0.0454,0.0425,0.9946,1.34,1.40,1.04,1.38,1.92,46.05
23.252286,-0.0469,0.0361,0.9907,-1.28,3.30,0.00,1.39,1.97,46.07
23.252286,-0.0327,0.0596,1.0088,-2.87,3.36,0.06,1.34,2.04,46.08
23.322822,-0.0254,0.0566,1.0127,-0.73,1.10,1.22,1.31,2.09,46.09
23.322822,-0.0156,0.0557,1.0215,-0.49,-1.04,3.11,1.30,2.08,46.14
23.342955,-0.0322,0.0464,1.0137,1.77,-1.59,3.60,1.31,2.05,46.21
23.342955,-0.0381,0.0269,0.9902,0.55,0.67,2.32,1.35,2.03,46.27
23.372119,-0.0386,0.0298,0.9858,-1.83,2.99,0.98,1.32,2.08,46.31
23.372119,-0.0063,0.0562,1.0112,-2.81,1.71,0.06,1.28,2.13,46.32
23.403003,-0.0303,0.0591,1.0205,0.00,-2.81,3.60,1.25,2.11,46.36
23.403003,-0.0342,0.0439,1.0034,-0.18,-2.01,2.81,1.25,2.05,46.43
23.462974,-0.0400,0.0298,0.9922,-0.85,0.06,2.38,1.25,2.03,46.48
23.462974,-0.0229,0.0352,0.9937,-2.38,1.53,0.85,1.21,2.05,46.52
23.492311,-0.0195,0.0640,1.0146,-1.10,0.12,1.77,1.18,2.07,46.55
23.492311,-0.0200,0.0620,1.0132,2.99,-0.92,1.04,1.20,2.06,46.58
23.523106,-0.0249,0.0381,0.9917,2.14,0.06,0.18,1.26,2.05,46.60
23.523106,-0.0288,0.0532,1.0005,0.12,2.08,-0.43,1.28,2.07,46.60
23.582992,-0.0049,0.0693,1.0063,2.38,1.65,-1.59,1.30,2.11,46.58
23.582992,-0.0220,0.0444,0.9834,2.99,-0.67,0.43,1.36,2.12,46.57
23.612447,-0.0361,0.0386,0.9668,-0.24,0.61,0.00,1.39,2.11,46.58
23.612447,-0.0088,0.0576,0.9878,-1.28,1.40,-1.40,1.37,2.15,46.57
23.642960,0.0000,0.0854,1.0122,0.79,-2.50,0.49,1.35,2.14,46.55
23.642960,-0.0259,0.0498,0.9927,3.66,-4.58,2.14,1.42,2.05,46.59
23.703008,-0.0464,0.0347,0.9868,-0.31,0.49,-0.67,1.45,2.01,46.60
23.703008,-0.0210,0.0396,0.9907,-1.83,3.60,-2.20,1.43,2.07,46.58
23.732249,0.0010,0.0508,0.9966,-3.85,1.40,-1.89,1.37,2.13,46.53
23.732249,-0.0103,0.0747,1.0200,-0.79,-2.87,0.06,1.31,2.11,46.52
23.792979,-0.0254,0.0601,1.0068,1.16,-4.64,2.14,1.33,2.02,46.54
23.792979,-0.0400,0.0454,0.9932,0.98,-2.69,0.85,1.35,1.94,46.58
23.822187,-0.0415,0.0342,0.9961,-0.24,0.55,-0.67,1.36,1.92,46.58
23.822187,-0.0200,0.0415,1.0068,-1.53,1.89,-0.73,1.34,1.96,46.57
23.853011,-0.0029,0.0566,1.0142,-1.34,-0.12,-0.55,1.31,1.98,46.55
23.853011,-0.0088,0.0557,1.0127,0.00,-3.54,0.31,1.30,1.93,46.55
23.913229,-0.0405,0.0483,1.0024,1.46,-3.72,0.67,1.31,1.86,46.56
23.913229,-0.0444,0.0239,0.9824,0.73,-0.06,-1.34,1.35,1.82,46.56
23.942140,-0.0312,0.0396,1.0034,-1.89,2.01,-1.34,1.32,1.85,46.53
23.942140,-0.0259,0.0537,1.0195,-0.67,0.92,-0.79,1.30,1.88,46.51
23.974187,-0.0244,0.0596,1.0210,-0.06,-1.34,1.04,1.30,1.88,46.52
23.974187,-0.0410,0.0566,1.0107,1.59,-2.01,1.10,1.31,1.84,46.54
24.033009,-0.0386,0.0439,0.9985,1.53,-0.55,1.10,1.35,1.81,46.57
24.033009,-0.0381,0.0430,0.9971,0.85,0.37,0.61,1.37,1.81,46.58
24.062188,-0.0190,0.0547,1.0005,0.43,0.00,0.73,1.39,1.82,46.60
24.062188,-0.0044,0.0566,1.0059,2.26,-2.56,0.85,1.42,1.79,46.61
24.092258,-0.0220,0.0474,1.0000,3.78,-2.87,-0.12,1.48,1.74,46.62
24.092258,-0.0249,0.0381,0.9756,1.22,-1.53,1.77,1.53,1.69,46.64
24.153653,-0.0210,0.0288,0.9561,-0.92,2.44,-1.65,1.54,1.69,46.65
24.153653,-0.0156,0.0288,0.9600,-3.66,4.52,-3.48,1.49,1.77,46.59
24.182541,-0.0010,0.0376,0.9819,-5.25,3.17,-1.89,1.40,1.86,46.55
24.182541,0.0088,0.0508,1.0015,-5.55,-0.31,-0.18,1.29,1.89,46.53
24.213217,0.0005,0.0498,0.9961,-5.68,-3.97,2.44,1.18,1.84,46.55
24.213217,-0.0342,0.0381,0.9849,-6.10,-4.46,2.69,1.06,1.74,46.61
24.273027,-0.0737,0.0562,1.0239,-3.54,0.43,-1.34,0.96,1.70,46.63
24.273027,-0.0542,0.0518,1.0278,4.70,4.94,-7.02,0.97,1.77,46.54
24.341268,-0.0195,0.0244,1.0059,2.87,3.78,-4.46,1.07,1.87,46.42
24.341268,-0.0117,0.0518,1.0190,-1.10,-1.34,2.44,1.07,1.90,46.41
24.341287,-0.0166,0.0649,1.0273,2.08,-4.15,1.89,1.08,1.83,46.46
24.341287,-0.0459,0.0503,1.0215,3.17,-4.27,3.17,1.14,1.74,46.50
24.393292,-0.0464,0.0337,0.9961,1.28,-1.95,5.31,1.19,1.67,46.60
24.393292,-0.0273,0.0396,0.9897,-1.53,1.71,0.55,1.19,1.67,46.66
24.422160,-0.0029,0.0576,1.0044,-2.44,1.46,-1.04,1.15,1.71,46.65
24.422160,-0.0093,0.0742,1.0151,0.79,-1.10,-0.85,1.12,1.71,46.63
24.452936,-0.0269,0.0708,1.0107,3.85,-1.46,-0.67,1.18,1.68,46.62
24.452936,-0.0371,0.0630,0.9966,5.49,0.37,-1.71,1.27,1.68,46.60
24.513393,-0.0317,0.0405,0.9800,4.46,2.08,-2.50,1.38,1.70,46.55
24.513393,-0.0103,0.0488,0.9854,3.42,1.46,-1.95,1.45,1.75,46.52
24.542343,0.0010,0.0791,1.0312,11.35,-2.32,-2.44,1.57,1.75,46.47
24.542343,-0.0034,0.0474,1.0269,15.50,-7.51,0.00,1.88,1.64,46.44
24.573057,-0.0210,0.0532,1.0269,13.49,-6.29,2.87,2.19,1.49,46.48
24.573057,-0.0151,0.0664,1.0215,4.70,-0.67,2.20,2.37,1.42,46.53
24.633005,-0.0088,0.0732,1.0068,2.08,1.83,-0.49,2.42,1.44,46.55
24.633005,-0.0103,0.0645,0.9927,4.27,0.49,-0.55,2.48,1.47,46.54
24.662225,-0.0273,0.0586,0.9902,6.77,-0.55,0.12,2.60,1.46,46.54
24.662225,-0.0215,0.0737,0.9995,7.26,-1.46,0.61,2.75,1.44,46.54
24.692999,-0.0220,0.0757,1.0024,7.57,-3.05,1.46,2.90,1.40,46.57
24.692999,-0.0200,0.0757,1.0049,7.32,-3.11,2.26,3.04,1.33,46.60
24.753031,-0.0171,0.0840,1.0054,8.24,-3.54,2.69,3.20,1.26,46.65
24.753031,-0.0122,0.0889,1.0024,6.96,-3.11,2.26,3.36,1.19,46.70
24.782173,-0.0024,0.0933,1.0005,3.23,-1.83,0.92,3.47,1.13,46.73
24.782173,-0.0073,0.0986,1.0005,0.55,-0.98,1.77,3.50,1.10,46.75
24.813361,-0.0034,0.1001,1.0020,-1.83,-0.31,3.54,3.48,1.09,46.81
24.813361,-0.0068,0.0957,1.0054,-3.36,-0.49,6.59,3.43,1.08,46.92
24.872990,-0.0103,0.0762,1.0020,-3.72,-0.92,5.80,3.36,1.04,47.05
24.872990,-0.0073,0.0645,1.0015,-3.60,0.67,-0.18,3.28,1.04,47.11
24.902204,-0.0059,0.0801,1.0005,-2.08,1.28,-3.23,3.24,1.06,47.07
24.902204,-0.0552,0.1079,1.0024,11.41,3.60,2.20,3.36,1.16,47.08
24.932972,0.0225,0.0601,0.9556,-1.46,-4.64,-16.85,3.38,1.06,46.91
24.932972,-0.0327,0.1519,1.0010,11.60,5.98,1.77,3.54,1.15,46.72
24.993092,-0.0005,0.0649,0.9995,-4.09,0.31,5.49,3.55,1.17,46.87
24.993092,-0.0215,0.1074,1.0005,2.62,-0.55,-1.28,3.58,1.19,46.88
25.022268,-0.0093,0.0757,1.0039,-3.23,1.10,-0.18,3.53,1.19,46.87
25.022268,-0.0088,0.0981,0.9956,-0.79,-0.18,-0.18,3.52,1.19,46.87
25.053017,-0.0151,0.0786,1.0015,-0.61,0.06,-0.06,3.49,1.20,46.87
25.053017,-0.0103,0.0903,0.9985,-0.06,0.18,-0.06,3.49,1.20,46.87
25.113346,-0.0117,0.0845,1.0000,1.40,0.00,-0.06,3.50,1.20,46.87
25.113346,-0.0137,0.0894,0.9995,0.98,0.00,-0.12,3.53,1.20,46.87
25.145116,-0.0117,0.0908,0.9995,0.98,0.06,-0.06,3.55,1.20,46.87
25.145116,-0.0122,0.0908,0.9995,-0.43,0.00,-0.12,3.56,1.20,46.87
25.205119,-0.0122,0.0894,0.9995,-0.92,0.00,-0.12,3.55,1.20,46.87
25.205119,-0.0117,0.0859,1.0010,-0.79,0.06,-0.12,3.53,1.20,46.87
25.233293,-0.0122,0.0874,1.0005,-0.37,0.00,-0.06,3.52,1.20,46.87
25.233293,-0.0122,0.0879,0.9985,0.18,0.00,-0.06,3.52,1.20,46.87
25.262260,-0.0112,0.0879,0.9985,0.61,0.00,-0.06,3.53,1.20,46.87
25.262260,-0.0117,0.0884,0.9995,0.67,0.00,-0.12,3.54,1.20,46.87
25.323481,-0.0122,0.0903,0.9985,0.37,0.00,-0.06,3.55,1.21,46.87
25.323481,-0.0107,0.0908,0.9995,-0.31,0.00,-0.06,3.55,1.21,46.87
25.378610,-0.0112,0.0903,1.0000,-0.61,0.00,-0.06,3.54,1.21,46.87
25.378610,-0.0117,0.0884,1.0000,-0.55,0.00,-0.06,3.53,1.21,46.87
25.382871,-0.0122,0.0879,1.0000,-0.18,0.00,0.00,3.53,1.21,46.87
25.382871,-0.0117,0.0869,1.0000,0.06,0.00,-0.06,3.53,1.21,46.87
25.443011,-0.0117,0.0879,1.0000,0.37,0.00,-0.06,3.53,1.21,46.87
25.443011,-0.0107,0.0884,0.9995,0.31,0.00,0.00,3.54,1.21,46.87
25.472118,-0.0117,0.0889,1.0000,0.00,0.00,-0.06,3.54,1.21,46.87
25.472118,-0.0112,0.0884,1.0000,-0.37,0.00,-0.12,3.54,1.21,46.87
25.502961,-0.0107,0.0879,0.9990,-0.49,0.00,-0.06,3.53,1.21,46.87
25.502961,-0.0117,0.0879,0.9995,-0.24,0.00,-0.06,3.53,1.21,46.87
25.562965,-0.0122,0.0874,1.0000,0.00,0.00,-0.06,3.52,1.21,46.87
25.562965,-0.0112,0.0869,0.9995,0.18,0.00,0.00,3.53,1.22,46.88
25.592370,-0.0122,0.0884,0.9980,0.18,0.00,-0.06,3.53,1.22,46.88
25.592370,-0.0122,0.0889,0.9976,0.18,0.06,-0.06,3.54,1.22,46.88
25.623008,-0.0117,0.0894,0.9976,-0.06,0.06,-0.06,3.54,1.22,46.88
25.623008,-0.0122,0.0884,0.9976,-0.24,0.00,-0.06,3.54,1.22,46.88
25.683054,-0.0127,0.0894,0.9980,-0.31,0.00,-0.12,3.53,1.22,46.88
25.683054,-0.0122,0.0874,0.9995,-0.12,0.00,-0.06,3.53,1.22,46.88
25.713287,-0.0127,0.0879,0.9990,0.06,0.00,-0.06,3.53,1.22,46.88
25.713287,-0.0122,0.0884,0.9980,0.12,0.00,-0.06,3.53,1.22,46.88
25.742250,-0.0122,0.0884,0.9985,0.18,0.00,-0.12,3.54,1.22,46.88
25.742250,-0.0127,0.0889,0.9985,0.12,0.00,-0.06,3.54,1.22,46.88
25.802225,-0.0127,0.0894,1.0000,-0.12,0.00,-0.12,3.54,1.22,46.88
25.802225,-0.0122,0.0889,1.0005,-0.24,0.00,-0.06,3.54,1.23,46.88
25.832346,-0.0122,0.0879,1.0005,-0.12,0.00,-0.06,3.53,1.23,46.88
25.832346,-0.0117,0.0884,1.0000,0.00,0.00,-0.06,3.53,1.23,46.88
25.862264,-0.0112,0.0869,1.0005,0.00,0.00,-0.06,3.53,1.23,46.88
25.862264,-0.0112,0.0879,1.0000,0.00,0.00,-0.06,3.53,1.23,46.88
25.922293,-0.0107,0.0889,0.9990,0.06,0.00,-0.12,3.54,1.23,46.88
25.922293,-0.0117,0.0884,0.9985,0.00,0.00,0.00,3.54,1.23,46.88
25.952258,-0.0112,0.0884,0.9990,-0.18,0.00,-0.12,3.54,1.23,46.88
25.952258,-0.0107,0.0879,0.9985,-0.18,0.00,-0.06,3.53,1.23,46.88
25.983180,-0.0107,0.0884,0.9995,-0.12,0.00,-0.06,3.53,1.23,46.88
25.983180,-0.0117,0.0879,0.9990,0.00,0.00,-0.12,3.53,1.24,46.88
26.043058,-0.0107,0.0879,0.9990,0.00,0.00,-0.06,3.54,1.27,46.88
26.043058,-0.0112,0.0884,1.0000,0.06,0.00,-0.06,3.54,1.29,46.88
26.073073,-0.0112,0.0889,1.0010,0.00,0.00,-0.06,3.54,1.30,46.88
26.073073,-0.0117,0.0879,0.9990,-0.06,0.00,-0.18,3.55,1.32,46.88
26.103360,-0.0122,0.0884,1.0000,-0.18,0.00,-0.06,3.55,1.32,46.88
26.103360,-0.0122,0.0874,1.0000,-0.12,0.06,-0.12,3.55,1.32,46.88
26.163152,-0.0127,0.0884,1.0000,0.00,0.00,-0.12,3.55,1.32,46.88
26.163152,-0.0122,0.0879,0.9995,0.06,0.00,-0.06,3.55,1.32,46.88
26.192262,-0.0117,0.0889,0.9990,0.00,0.00,-0.06,3.55,1.32,46.88
26.192262,-0.0122,0.0889,1.0000,0.00,0.00,-0.12,3.55,1.33,46.88
26.225040,-0.0132,0.0889,0.9990,0.00,0.00,-0.12,3.55,1.33,46.87
26.225040,-0.0137,0.0884,0.9990,-0.12,0.00,-0.06,3.55,1.33,46.87
26.284244,-0.0132,0.0879,0.9985,-0.12,0.00,-0.06,3.55,1.33,46.87
26.284244,-0.0132,0.0884,0.9985,-0.12,0.00,-0.06,3.55,1.33,46.87
26.313925,-0.0127,0.0884,0.9995,-0.06,0.00,-0.12,3.55,1.33,46.87
26.313925,-0.0127,0.0884,0.9995,0.00,0.00,-0.06,3.55,1.33,46.87
26.362699,-0.0117,0.0879,0.9990,0.00,0.00,-0.06,3.55,1.33,46.87
26.362699,-0.0112,0.0874,0.9995,0.00,0.00,-0.12,3.55,1.34,46.87
26.428956,-0.0112,0.0879,1.0005,-0.06,0.00,-0.06,3.55,1.34,46.86
26.428956,-0.0112,0.0879,0.9995,-0.06,0.00,-0.12,3.55,1.34,46.86
26.450450,-0.0112,0.0879,0.9990,-0.12,0.00,0.00,3.55,1.34,46.86
26.450450,-0.0107,0.0874,1.0000,-0.12,0.00,-0.06,3.55,1.34,46.86
26.479501,-0.0122,0.0879,0.9980,0.00,0.00,-0.06,3.56,1.34,46.86
26.479501,-0.0112,0.0879,1.0000,0.00,0.00,-0.12,3.56,1.34,46.86
26.512579,-0.0112,0.0884,0.9995,0.00,0.00,-0.12,3.56,1.35,46.86
26.512579,-0.0117,0.0884,0.9995,-0.06,0.00,-0.06,3.56,1.35,46.86
26.572626,-0.0112,0.0884,0.9990,0.00,0.00,-0.06,3.56,1.35,46.85
26.572626,-0.0122,0.0874,0.9985,0.00,0.00,-0.12,3.56,1.35,46.85
26.626217,-0.0112,0.0884,0.9995,0.00,0.00,-0.12,3.56,1.35,46.85
26.626217,-0.0107,0.0879,0.9985,0.00,0.06,-0.12,3.56,1.35,46.85
26.662343,-0.0117,0.0884,0.9985,0.06,0.00,-0.12,3.56,1.35,46.85
26.662343,-0.0112,0.0894,0.9990,0.00,0.00,-0.06,3.56,1.35,46.85
26.691379,-0.0122,0.0894,0.9995,0.00,0.00,-0.06,3.56,1.35,46.85
26.691379,-0.0127,0.0894,1.0000,0.00,0.00,-0.12,3.56,1.35,46.85
26.721315,-0.0117,0.0884,1.0005,0.00,0.00,-0.12,3.56,1.35,46.84
26.721315,-0.0122,0.0894,1.0000,-0.12,0.00,-0.06,3.56,1.35,46.84
26.751372,-0.0132,0.0889,1.0005,-0.06,0.00,-0.06,3.57,1.35,46.84
26.751372,-0.0122,0.0884,1.0005,-0.06,0.00,-0.06,3.57,1.36,46.84
26.812550,-0.0132,0.0874,1.0000,0.00,0.00,-0.12,3.57,1.36,46.83
26.812550,-0.0127,0.0879,0.9980,0.00,0.00,-0.06,3.57,1.36,46.83
26.842483,-0.0122,0.0879,0.9990,0.00,0.00,0.00,3.57,1.36,46.83
26.842483,-0.0122,0.0884,0.9995,0.00,0.00,-0.06,3.57,1.36,46.83
26.872623,-0.0122,0.0884,0.9995,-0.06,0.00,-0.12,3.57,1.36,46.83
26.872623,-0.0122,0.0884,0.9985,0.00,0.00,-0.06,3.57,1.36,46.83
26.931291,-0.0117,0.0889,0.9995,0.00,0.00,-0.12,3.57,1.36,46.83
26.931291,-0.0112,0.0894,0.9995,0.00,0.00,-0.12,3.57,1.36,46.83
26.960494,-0.0112,0.0884,1.0000,0.00,0.00,-0.12,3.57,1.36,46.83
26.960494,-0.0117,0.0879,0.9995,-0.06,0.00,-0.12,3.57,1.36,46.82
26.992631,-0.0107,0.0884,1.0000,0.00,0.00,-0.06,3.57,1.36,46.82
26.992631,-0.0103,0.0884,0.9985,0.00,0.06,-0.12,3.57,1.36,46.82
27.050688,-0.0107,0.0879,0.9985,0.00,0.00,-0.12,3.57,1.36,46.82
27.050688,-0.0112,0.0889,0.9995,0.00,0.12,-0.12,3.57,1.37,46.82
27.079953,-0.0122,0.0879,0.9995,0.00,0.06,-0.12,3.57,1.37,46.82
27.079953,-0.0117,0.0884,1.0005,-0.06,0.00,-0.06,3.57,1.37,46.82
27.110547,-0.0112,0.0884,1.0005,-0.06,0.00,-0.06,3.57,1.37,46.82
27.110547,-0.0117,0.0884,0.9995,-0.06,0.00,-0.12,3.57,1.37,46.82
27.170797,-0.0122,0.0889,0.9985,-0.06,0.00,0.00,3.57,1.37,46.82
27.170797,-0.0127,0.0889,0.9990,-0.06,0.00,-0.12,3.57,1.37,46.81
27.200165,-0.0117,0.0889,0.9985,0.00,0.06,-0.06,3.57,1.37,46.81
27.200165,-0.0122,0.0884,0.9990,-0.06,0.00,-0.06,3.57,1.37,46.81
27.230926,-0.0117,0.0884,0.9985,-0.06,0.00,-0.06,3.57,1.37,46.81
27.230926,-0.0122,0.0879,0.9990,0.00,0.00,-0.12,3.57,1.37,46.81
27.290666,-0.0127,0.0874,0.9990,-0.06,0.00,-0.06,3.57,1.37,46.81
27.290666,-0.0127,0.0889,0.9976,-0.06,0.00,-0.12,3.57,1.37,46.81
27.319826,-0.0122,0.0889,0.9990,0.00,0.00,-0.12,3.57,1.37,46.81
27.319826,-0.0122,0.0879,0.9990,0.00,0.00,-0.06,3.57,1.37,46.81
27.350679,-0.0117,0.0884,0.9990,-0.06,0.00,-0.12,3.58,1.37,46.81
27.350679,-0.0117,0.0879,0.9995,0.00,0.00,-0.06,3.58,1.38,46.80
27.410744,-0.0127,0.0884,0.9980,0.00,0.00,-0.12,3.58,1.38,46.80
27.410744,-0.0117,0.0879,1.0000,0.00,0.00,-0.12,3.58,1.38,46.80
27.474663,-0.0122,0.0884,0.9995,0.00,0.00,-0.06,3.58,1.38,46.80
27.474663,-0.0112,0.0884,0.9995,-0.06,-0.06,-0.06,3.58,1.38,46.80
27.474683,-0.0112,0.0879,0.9985,-0.06,0.00,-0.12,3.58,1.38,46.80
27.474683,-0.0112,0.0884,0.9990,-0.06,0.00,-0.06,3.58,1.38,46.80
27.531066,-0.0107,0.0874,1.0000,0.00,0.00,-0.06,3.58,1.38,46.80
27.531066,-0.0112,0.0889,1.0000,0.00,0.00,-0.18,3.58,1.38,46.80
27.559831,-0.0117,0.0884,0.9995,0.00,0.00,-0.12,3.58,1.38,46.80
27.559831,-0.0122,0.0884,0.9985,0.00,0.00,-0.12,3.58,1.38,46.79
27.590662,-0.0112,0.0879,0.9985,-0.06,0.00,0.00,3.58,1.38,46.79
27.590662,-0.0107,0.0884,0.9990,-0.06,0.00,-0.12,3.58,1.38,46.79
27.650692,-0.0107,0.0884,0.9980,0.00,0.00,-0.06,3.58,1.38,46.79
27.650692,-0.0107,0.0879,0.9985,0.00,0.00,-0.06,3.58,1.38,46.79
27.679917,-0.0117,0.0884,0.9985,0.00,0.00,-0.12,3.58,1.38,46.79
27.679917,-0.0122,0.0879,0.9995,0.00,0.00,-0.06,3.58,1.38,46.79
27.740670,-0.0127,0.0874,0.9985,0.00,0.06,-0.06,3.58,1.38,46.79
27.740670,-0.0127,0.0879,0.9985,0.00,0.00,-0.18,3.58,1.38,46.79
27.769834,-0.0127,0.0884,0.9990,0.00,0.00,-0.18,3.58,1.38,46.79
27.769834,-0.0132,0.0879,0.9990,-0.06,0.00,-0.06,3.58,1.39,46.79
27.801150,-0.0122,0.0884,0.9995,0.00,0.00,-0.06,3.58,1.39,46.78
27.801150,-0.0132,0.0889,0.9990,0.00,0.00,-0.06,3.58,1.39,46.78
27.860722,-0.0117,0.0874,0.9995,0.00,0.00,-0.06,3.58,1.39,46.78
27.860722,-0.0122,0.0879,0.9990,-0.06,0.00,-0.12,3.58,1.39,46.78
27.889978,-0.0122,0.0889,0.9985,0.00,0.00,-0.12,3.58,1.39,46.78
27.889978,-0.0127,0.0879,0.9990,0.00,0.00,-0.06,3.58,1.39,46.78
27.920625,-0.0127,0.0879,0.9976,0.00,0.00,-0.12,3.58,1.40,46.77
27.920625,-0.0117,0.0879,0.9985,-0.06,0.00,-0.12,3.58,1.40,46.77
27.980739,-0.0117,0.0889,0.9985,-0.06,0.06,-0.06,3.58,1.40,46.77
27.980739,-0.0122,0.0889,0.9985,-0.06,0.00,-0.06,3.58,1.40,46.77
28.009969,-0.0122,0.0884,0.9990,0.00,0.00,-0.06,3.58,1.40,46.77
28.009969,-0.0117,0.0879,0.9985,-0.06,0.00,-0.12,3.58,1.40,46.77
28.041208,-0.0112,0.0879,0.9990,0.00,0.00,-0.12,3.58,1.40,46.77
28.041208,-0.0112,0.0879,0.9990,0.00,0.00,-0.12,3.58,1.40,46.77
28.101283,-0.0112,0.0884,1.0000,0.00,0.00,-0.12,3.58,1.40,46.77
28.101283,-0.0112,0.0879,0.9990,-0.06,0.00,-0.06,3.58,1.40,46.77
28.162592,-0.0117,0.0874,0.9990,0.00,0.06,-0.06,3.58,1.40,46.77
28.162592,-0.0117,0.0869,0.9995,0.00,0.00,-0.12,3.58,1.40,46.76
28.162752,-0.0122,0.0879,0.9990,0.00,0.00,-0.12,3.58,1.40,46.76
28.162752,-0.0112,0.0884,0.9985,0.00,0.00,-0.06,3.58,1.40,46.76
28.221161,-0.0117,0.0884,0.9985,0.00,0.06,-0.06,3.58,1.40,46.76
28.221161,-0.0122,0.0879,0.9990,0.00,0.00,-0.06,3.58,1.40,46.76
28.251098,-0.0117,0.0884,0.9985,0.00,0.00,-0.06,3.58,1.40,46.76
28.251098,-0.0132,0.0884,0.9985,0.00,0.00,-0.06,3.58,1.40,46.76
28.279835,-0.0122,0.0889,0.9985,0.00,0.00,-0.12,3.58,1.40,46.76
28.279835,-0.0122,0.0884,0.9995,-0.06,0.00,-0.06,3.58,1.40,46.76
28.340788,-0.0117,0.0889,0.9985,-0.06,0.00,-0.06,3.58,1.40,46.76
28.340788,-0.0117,0.0884,0.9990,-0.06,0.00,-0.12,3.58,1.40,46.76
28.369928,-0.0122,0.0879,0.9990,-0.06,0.00,-0.06,3.58,1.41,46.76
28.369928,-0.0122,0.0884,1.0000,-0.06,0.00,-0.06,3.58,1.41,46.76
28.401515,-0.0127,0.0884,1.0000,-0.06,0.00,-0.18,3.59,1.41,46.75
28.401515,-0.0127,0.0874,0.9990,0.00,0.00,-0.12,3.59,1.41,46.75
28.459919,-0.0122,0.0869,1.0000,0.00,0.00,-0.06,3.59,1.41,46.75
28.459919,-0.0112,0.0869,0.9995,0.00,0.00,-0.06,3.59,1.41,46.75
28.524114,-0.0122,0.0889,0.9990,0.00,0.00,-0.06,3.59,1.41,46.75
28.524114,-0.0117,0.0879,1.0000,0.00,0.00,-0.18,3.59,1.41,46.75
28.524133,-0.0122,0.0884,0.9990,-0.06,0.00,-0.06,3.59,1.41,46.75
28.524133,-0.0112,0.0884,0.9985,-0.06,0.00,-0.12,3.59,1.41,46.75
28.580606,-0.0112,0.0884,1.0005,-0.06,0.00,-0.06,3.59,1.41,46.75
28.580606,-0.0122,0.0879,0.9995,0.00,0.00,-0.06,3.59,1.41,46.75
28.609859,-0.0112,0.0884,0.9995,0.00,0.00,-0.06,3.59,1.41,46.75
28.609859,-0.0117,0.0884,0.9995,0.00,0.00,0.00,3.59,1.41,46.75
28.640761,-0.0107,0.0889,0.9985,0.00,0.00,-0.12,3.59,1.41,46.75
28.640761,-0.0112,0.0884,0.9990,0.00,0.00,-0.06,3.59,1.41,46.74
28.701108,-0.0112,0.0884,0.9995,0.00,0.00,-0.06,3.59,1.41,46.74
28.701108,-0.0112,0.0884,0.9990,0.00,0.00,0.00,3.59,1.41,46.74
28.730243,-0.0112,0.0884,0.9990,-0.06,0.00,-0.12,3.59,1.41,46.74
28.730243,-0.0117,0.0884,0.9995,-0.06,0.00,-0.06,3.59,1.41,46.74
28.760708,-0.0122,0.0884,0.9990,-0.12,0.00,-0.12,3.59,1.41,46.74
28.760708,-0.0127,0.0874,0.9980,-0.06,0.00,-0.12,3.59,1.41,46.74
28.820779,-0.0122,0.0874,0.9990,0.00,0.00,-0.06,3.59,1.41,46.74
28.820779,-0.0127,0.0884,0.9990,0.00,0.06,-0.06,3.59,1.41,46.74
28.849977,-0.0127,0.0879,0.9990,0.00,0.00,-0.06,3.59,1.41,46.74
28.849977,-0.0132,0.0879,1.0000,-0.06,0.00,-0.18,3.59,1.41,46.74
28.881137,-0.0122,0.0884,1.0000,-0.06,0.00,0.00,3.59,1.42,46.74
28.881137,-0.0117,0.0874,0.9990,0.00,0.00,-0.12,3.59,1.42,46.74
28.940998,-0.0117,0.0879,0.9985,0.00,0.00,-0.06,3.59,1.42,46.74
28.940998,-0.0122,0.0884,0.9995,-0.06,0.00,-0.12,3.59,1.42,46.73
28.969927,-0.0122,0.0879,1.0000,-0.06,0.00,0.00,3.59,1.42,46.73
28.969927,-0.0127,0.0884,1.0005,-0.06,0.00,-0.12,3.59,1.42,46.73
29.001157,-0.0122,0.0879,0.9995,-0.06,0.00,-0.06,3.59,1.42,46.73
29.001157,-0.0117,0.0874,1.0000,-0.06,0.00,-0.06,3.59,1.42,46.73
29.060761,-0.0122,0.0879,1.0000,-0.06,0.00,-0.06,3.59,1.42,46.73
29.060761,-0.0107,0.0879,1.0000,0.00,0.00,-0.06,3.59,1.42,46.73
29.090851,-0.0122,0.0874,1.0005,-0.06,0.00,-0.12,3.59,1.42,46.72
29.090851,-0.0117,0.0874,1.0000,0.00,0.00,-0.06,3.59,1.42,46.72
29.150706,-0.0117,0.0884,0.9995,0.00,0.00,-0.06,3.59,1.42,46.72
29.150706,-0.0107,0.0879,1.0000,0.00,0.00,-0.06,3.59,1.42,46.72
29.180018,-0.0112,0.0889,0.9995,0.00,0.00,-0.06,3.59,1.42,46.72
29.180018,-0.0117,0.0889,0.9990,0.00,0.00,-0.12,3.59,1.42,46.72
29.210708,-0.0117,0.0884,1.0005,0.00,0.00,-0.12,3.59,1.42,46.72
29.210708,-0.0127,0.0889,1.0015,-0.12,0.00,-0.06,3.59,1.42,46.72
29.270847,-0.0117,0.0879,0.9995,-0.12,0.00,-0.06,3.59,1.42,46.72
29.270847,-0.0122,0.0884,1.0000,0.00,0.00,-0.06,3.59,1.42,46.72
29.300256,-0.0122,0.0884,1.0000,0.00,0.00,-0.18,3.59,1.42,46.72
29.300256,-0.0122,0.0869,0.9995,0.00,0.00,-0.12,3.59,1.42,46.72
29.331057,-0.0122,0.0879,0.9995,0.00,0.00,-0.12,3.59,1.42,46.72
29.331057,-0.0117,0.0884,1.0000,0.00,0.00,-0.12,3.59,1.42,46.72
29.390986,-0.0122,0.0884,0.9995,0.00,0.00,-0.12,3.59,1.42,46.71
29.390986,-0.0132,0.0869,0.9990,-0.06,0.00,-0.18,3.59,1.42,46.71
29.420006,-0.0127,0.0874,0.9995,-0.06,0.00,-0.06,3.59,1.42,46.71
29.420006,-0.0122,0.0884,0.9995,-0.06,0.00,-0.12,3.59,1.42,46.71
29.450786,-0.0122,0.0884,0.9985,0.00,0.00,-0.12,3.59,1.43,46.71
29.450786,-0.0127,0.0879,0.9995,0.00,0.00,-0.18,3.59,1.43,46.71
29.511161,-0.0122,0.0884,0.9995,0.00,0.00,-0.06,3.59,1.43,46.71
29.511161,-0.0127,0.0879,0.9990,0.00,0.00,-0.06,3.59,1.43,46.71
29.575934,-0.0122,0.0894,1.0000,0.00,0.00,-0.06,3.59,1.43,46.71
29.575934,-0.0117,0.0884,0.9995,-0.06,0.00,-0.06,3.59,1.43,46.71
29.575950,-0.0117,0.0874,1.0000,-0.06,0.00,-0.12,3.59,1.43,46.71
29.575950,-0.0117,0.0889,1.0005,-0.06,0.00,-0.06,3.59,1.43,46.71
29.630936,-0.0107,0.0874,0.9995,-0.06,0.00,-0.12,3.59,1.43,46.71
29.630936,-0.0117,0.0879,1.0000,-0.18,0.00,-0.12,3.59,1.43,46.71
29.659970,-0.0117,0.0869,0.9990,-0.12,0.00,-0.12,3.59,1.43,46.71
29.659970,-0.0112,0.0879,0.9995,-0.12,0.00,-0.06,3.59,1.43,46.71
29.690733,-0.0112,0.0864,0.9990,-0.12,0.00,-0.06,3.59,1.43,46.70
29.690733,-0.0122,0.0869,0.9995,-0.06,0.06,-0.06,3.59,1.43,46.70
29.750727,-0.0112,0.0869,0.9990,0.12,0.00,-0.06,3.59,1.43,46.70
29.750727,-0.0122,0.0879,0.9985,0.06,0.06,-0.12,3.59,1.43,46.70
29.779943,-0.0117,0.0884,0.9980,0.12,0.00,-0.12,3.59,1.43,46.70
29.779943,-0.0122,0.0879,0.9990,0.06,0.06,-0.06,3.59,1.43,46.70
29.810765,-0.0127,0.0889,0.9985,0.06,0.06,-0.12,3.59,1.43,46.70
29.810765,-0.0127,0.0884,0.9995,0.00,0.00,-0.06,3.59,1.43,46.70
29.870760,-0.0122,0.0879,0.9990,-0.06,0.00,-0.06,3.59,1.43,46.70
29.870760,-0.0117,0.0869,1.0000,-0.12,0.00,-0.12,3.59,1.43,46.70
29.900319,-0.0098,0.0825,0.9854,0.12,0.67,-0.37,3.59,1.43,46.70
29.900319,-0.0190,0.0908,1.0103,0.31,0.00,-0.18,3.59,1.43,46.70
29.931159,-0.0122,0.0884,1.0044,0.67,0.43,-0.06,3.59,1.43,46.70
29.931159,-0.0073,0.0879,0.9878,-0.55,0.00,-0.18,3.59,1.43,46.70
29.990768,-0.0156,0.0913,1.0000,0.00,-0.55,-0.12,3.59,1.43,46.70
29.990768,-0.0161,0.0854,1.0029,0.31,0.31,0.00,3.59,1.43,46.70
30.019872,-0.0103,0.0903,0.9980,-0.06,0.24,0.00,3.59,1.43,46.69
30.019872,-0.0112,0.0889,0.9971,-0.06,0.00,-0.06,3.59,1.43,46.69
30.050860,-0.0142,0.0884,0.9985,0.00,0.00,-0.12,3.59,1.44,46.69
30.050860,-0.0142,0.0913,1.0015,0.12,0.06,0.00,3.59,1.44,46.69
30.110044,-0.0112,0.0879,0.9976,0.00,0.00,0.00,3.59,1.44,46.69
30.110044,-0.0117,0.0889,0.9990,-0.37,-0.06,-0.06,3.59,1.44,46.69
30.140789,-0.0117,0.0864,0.9985,-0.12,-0.06,-0.06,3.59,1.44,46.69
30.140789,-0.0142,0.0879,1.0034,0.12,0.00,0.00,3.59,1.44,46.69
30.170031,-0.0103,0.0879,1.0000,-0.18,0.00,-0.06,3.59,1.44,46.69
30.170031,-0.0103,0.0894,0.9971,-0.31,0.00,-0.12,3.59,1.44,46.69
30.231280,-0.0122,0.0854,0.9976,0.24,0.12,-0.18,3.59,1.44,46.69
30.231280,-0.0137,0.0903,1.0049,0.24,0.00,-0.06,3.59,1.44,46.69
30.259995,-0.0107,0.0894,0.9985,-0.12,0.00,-0.06,3.59,1.44,46.69
30.259995,-0.0107,0.0884,0.9995,-0.55,-0.18,-0.12,3.59,1.44,46.69
30.290838,-0.0117,0.0854,1.0000,-0.24,-0.12,-0.06,3.59,1.44,46.69
30.290838,-0.0117,0.0718,0.9341,0.73,2.93,-0.61,3.59,1.44,46.69
30.350774,-0.0112,0.1050,0.8906,-3.72,-2.87,0.49,3.59,1.42,46.69
30.350774,-0.0347,0.0938,1.0063,1.89,2.26,0.43,3.60,1.44,46.69
30.379957,0.0063,0.0815,0.9771,-0.61,-0.06,-1.28,3.58,1.42,46.69
30.379957,-0.0171,0.0977,0.9868,0.31,-0.55,0.18,3.60,1.43,46.70
30.410768,-0.0176,0.0898,1.0249,0.73,0.12,0.55,3.60,1.43,46.70
30.410768,-0.0083,0.0903,0.9985,-0.49,0.73,-0.18,3.59,1.43,46.69
30.470770,-0.0117,0.0894,1.0000,-0.37,-0.61,-0.49,3.59,1.43,46.70
30.470770,-0.0151,0.0874,1.0068,0.67,0.24,-0.06,3.59,1.43,46.70
30.501220,-0.0107,0.0879,0.9937,-0.12,0.18,-0.12,3.59,1.43,46.70
30.501220,-0.0122,0.0894,1.0029,-0.55,-0.18,-0.18,3.59,1.43,46.70
30.560794,-0.0146,0.0854,1.0029,0.06,0.00,-0.06,3.59,1.43,46.70
30.560794,-0.0137,0.0869,0.9976,0.12,0.06,-0.12,3.59,1.43,46.70
30.625043,-0.0112,0.0884,0.9995,-0.06,-0.06,-0.12,3.59,1.43,46.70
30.625043,-0.0132,0.0859,1.0005,-0.31,0.00,-0.12,3.59,1.43,46.70
30.625059,-0.0117,0.0869,0.9985,0.00,0.06,-0.12,3.59,1.43,46.70
30.625059,-0.0122,0.0874,0.9985,0.18,0.00,-0.12,3.59,1.43,46.70
30.680673,-0.0117,0.0884,0.9985,-0.06,0.00,-0.06,3.59,1.43,46.70
30.680673,-0.0117,0.0884,0.9985,-0.12,0.00,-0.12,3.59,1.43,46.70
30.709931,-0.0122,0.0874,0.9995,0.00,0.00,-0.06,3.59,1.43,46.70
30.709931,-0.0117,0.0884,0.9985,0.06,0.00,-0.12,3.59,1.43,46.70
30.740727,-0.0122,0.0889,0.9985,-0.06,0.00,-0.12,3.59,1.43,46.70
30.740727,-0.0122,0.0884,0.9985,-0.06,0.00,-0.12,3.59,1.43,46.70
30.801259,-0.0122,0.0879,0.9990,0.06,0.00,-0.12,3.59,1.43,46.70
30.801259,-0.0127,0.0874,1.0010,0.06,0.00,-0.06,3.59,1.43,46.70
30.830280,-0.0122,0.0889,0.9985,-0.06,0.00,-0.06,3.59,1.43,46.70
30.830280,-0.0122,0.0879,1.0000,-0.06,0.06,-0.12,3.59,1.43,46.70
30.860835,-0.0122,0.0889,1.0000,0.00,0.00,-0.12,3.59,1.43,46.70
30.860835,-0.0117,0.0889,0.9990,0.00,0.00,-0.12,3.59,1.43,46.70
30.920829,-0.0122,0.0874,0.9990,-0.12,0.00,-0.06,3.59,1.43,46.70
30.920829,-0.0127,0.0884,0.9990,-0.06,0.00,-0.06,3.59,1.43,46.70
30.949984,-0.0127,0.0879,0.9995,0.00,0.00,-0.12,3.59,1.43,46.70
30.949984,-0.0132,0.0884,0.9990,0.00,0.00,-0.06,3.59,1.43,46.70
30.980826,-0.0112,0.0879,0.9995,-0.06,0.06,-0.12,3.59,1.43,46.70
30.980826,-0.0127,0.0889,0.9995,0.00,0.00,0.00,3.59,1.43,46.70
31.040807,-0.0127,0.0874,0.9995,0.00,0.00,-0.06,3.59,1.43,46.70
31.040807,-0.0127,0.0889,0.9980,0.00,0.00,-0.06,3.59,1.43,46.70
31.070507,-0.0127,0.0884,1.0000,-0.06,0.00,-0.12,3.59,1.43,46.70
31.070507,-0.0127,0.0884,1.0000,0.00,0.00,-0.06,3.59,1.43,46.70
31.100295,-0.0117,0.0879,1.0000,0.00,0.00,-0.06,3.59,1.43,46.70
31.100295,-0.0127,0.0884,0.9990,0.00,0.00,-0.12,3.59,1.43,46.70
31.160815,-0.0127,0.0879,1.0000,0.00,0.00,-0.06,3.59,1.43,46.70
31.160815,-0.0132,0.0879,0.9995,0.00,0.00,-0.06,3.59,1.43,46.70
31.190000,-0.0122,0.0884,0.9990,0.00,0.00,-0.06,3.59,1.43,46.70
31.190000,-0.0127,0.0889,1.0000,0.00,0.00,-0.06,3.59,1.44,46.70
31.220807,-0.0122,0.0889,0.9995,0.00,0.00,-0.06,3.59,1.44,46.70
31.220807,-0.0122,0.0889,0.9985,0.00,0.00,-0.06,3.59,1.44,46.70
31.280802,-0.0122,0.0879,0.9995,0.00,0.00,-0.06,3.59,1.44,46.70
31.280802,-0.0122,0.0889,0.9995,-0.06,0.00,-0.12,3.59,1.44,46.70
31.312718,-0.0127,0.0879,0.9990,-0.06,0.00,-0.12,3.59,1.44,46.70
31.312718,-0.0127,0.0879,0.9990,0.00,0.00,-0.06,3.59,1.44,46.70
31.342724,-0.0112,0.0894,0.9985,0.00,0.00,-0.12,3.59,1.44,46.70
31.342724,-0.0122,0.0884,0.9990,0.00,0.00,-0.06,3.59,1.44,46.70
31.401237,-0.0122,0.0874,0.9990,-0.06,0.00,-0.06,3.59,1.44,46.70
31.401237,-0.0117,0.0879,0.9990,0.00,0.00,0.00,3.59,1.44,46.70
31.433047,-0.0117,0.0894,0.9985,0.00,0.00,-0.12,3.59,1.44,46.71
31.433047,-0.0127,0.0889,0.9995,-0.06,0.00,-0.06,3.59,1.44,46.72
31.462848,-0.0122,0.0884,0.9990,-0.06,0.00,-0.12,3.59,1.44,46.73
31.462848,-0.0127,0.0879,0.9976,-0.06,0.00,-0.12,3.59,1.44,46.74
31.520833,-0.0127,0.0874,0.9990,-0.06,0.00,-0.06,3.59,1.44,46.74
31.520833,-0.0127,0.0889,0.9507,0.85,0.12,0.00,3.59,1.44,46.75
31.549990,-0.0171,0.0781,1.0166,-1.53,0.55,1.10,3.58,1.45,46.76
31.549990,-0.0103,0.0938,0.9995,1.22,-0.18,-0.43,3.59,1.44,46.76
31.580735,-0.0132,0.0854,0.9902,-0.49,-0.31,-0.49,3.58,1.44,46.75
31.580735,-0.0098,0.0928,0.9932,-0.24,0.61,0.06,3.59,1.44,46.75
31.645234,-0.0122,0.0874,0.9995,0.61,1.40,0.73,3.59,1.46,46.76
31.645234,-0.0181,0.0859,1.0024,0.37,0.31,0.31,3.60,1.48,46.78
31.670028,-0.0122,0.0889,1.0039,0.49,-0.31,-0.24,3.61,1.48,46.78
31.670028,-0.0161,0.0923,0.9995,1.22,-0.49,-0.55,3.64,1.47,46.77
31.700996,-0.0107,0.0845,1.0010,-1.04,-0.43,-0.31,3.63,1.46,46.77
31.700996,-0.0098,0.0952,0.9927,-0.55,0.00,-0.18,3.62,1.45,46.76
31.760825,-0.0132,0.0879,1.0015,-0.24,0.00,-0.06,3.61,1.46,46.76
31.760825,-0.0137,0.0879,1.0010,-0.49,-0.12,-0.12,3.60,1.46,46.76
31.790037,-0.0132,0.0913,0.9976,-0.67,-0.18,-0.12,3.59,1.45,46.76
31.790037,-0.0142,0.0874,0.9961,-0.98,-0.18,-0.06,3.58,1.45,46.76
31.820852,-0.0107,0.0854,1.0024,-0.43,0.00,0.00,3.56,1.44,46.76
31.820852,-0.0132,0.0864,1.0044,0.43,-0.12,-0.18,3.57,1.44,46.76
31.880841,-0.0107,0.0928,0.9902,0.98,-0.55,-0.61,3.58,1.43,46.75
31.880841,-0.0146,0.0859,0.9995,-0.31,0.00,-0.18,3.58,1.43,46.75
31.911409,-0.0112,0.0908,0.9990,-0.12,0.06,-0.06,3.58,1.43,46.75
31.911409,-0.0117,0.0874,0.9995,0.24,0.00,-0.12,3.58,1.43,46.75
31.970899,-0.0127,0.0879,0.9995,-0.24,0.00,-0.12,3.58,1.43,46.75
31.970899,-0.0127,0.0889,0.9995,-0.31,0.00,-0.06,3.58,1.43,46.75
32.001249,-0.0127,0.0879,0.9990,-0.06,0.00,-0.06,3.58,1.43,46.75
32.001249,-0.0122,0.0874,0.9985,0.00,0.00,-0.12,3.58,1.43,46.75
32.030329,-0.0122,0.0889,0.9980,0.06,0.00,0.00,3.58,1.43,46.75
32.030329,-0.0117,0.0889,0.9980,-0.06,0.00,-0.06,3.58,1.43,46.75
32.090427,-0.0127,0.0889,0.9990,0.00,0.00,-0.12,3.58,1.43,46.75
32.090427,-0.0132,0.0884,0.9985,0.00,0.00,-0.06,3.58,1.43,46.75
32.120857,-0.0132,0.0894,0.9990,-0.12,0.00,-0.06,3.58,1.43,46.75
32.120857,-0.0132,0.0889,1.0000,-0.12,0.00,-0.06,3.58,1.43,46.75
32.150116,-0.0132,0.0879,1.0005,0.00,0.00,-0.06,3.58,1.43,46.75
32.150116,-0.0137,0.0889,1.0000,0.00,0.00,-0.06,3.58,1.43,46.75
32.210949,-0.0132,0.0884,1.0000,0.00,0.00,-0.06,3.58,1.43,46.75
32.210949,-0.0132,0.0879,0.9990,-0.06,0.00,-0.06,3.58,1.43,46.75
32.240085,-0.0122,0.0879,0.9995,-0.06,0.00,-0.06,3.58,1.43,46.75
32.240085,-0.0122,0.0879,0.9995,-0.06,-0.06,-0.12,3.58,1.43,46.75
32.270888,-0.0132,0.0879,0.9995,-0.12,0.00,-0.12,3.58,1.43,46.75
32.270888,-0.0132,0.0864,1.0000,-0.06,0.00,-0.12,3.57,1.43,46.75
32.332958,-0.0122,0.0884,0.9985,0.00,0.00,-0.06,3.57,1.43,46.75
32.332958,-0.0117,0.0879,0.9985,-0.06,0.00,-0.12,3.57,1.43,46.75
32.362826,-0.0127,0.0894,0.9990,0.00,0.00,-0.06,3.57,1.43,46.75
32.362826,-0.0127,0.0884,0.9995,-0.06,0.00,-0.06,3.57,1.43,46.75
32.392872,-0.0117,0.0889,0.9990,0.00,0.00,-0.12,3.57,1.43,46.75
32.392872,-0.0117,0.0879,1.0000,0.00,0.00,-0.06,3.57,1.43,46.75
32.450934,-0.0122,0.0879,0.9995,0.00,0.00,-0.06,3.57,1.43,46.75
32.450934,-0.0127,0.0879,1.0000,0.00,0.00,-0.06,3.57,1.43,46.75
32.484199,-0.0127,0.0889,1.0005,0.06,0.00,-0.12,3.58,1.43,46.75
32.484199,-0.0132,0.0879,1.0000,0.00,0.00,-0.06,3.58,1.43,46.75
32.510864,-0.0132,0.0879,1.0005,0.00,0.00,-0.06,3.58,1.43,46.75
32.510864,-0.0117,0.0884,0.9995,-0.06,0.00,-0.18,3.58,1.43,46.75
32.570853,-0.0117,0.0884,0.9995,-0.06,0.00,-0.12,3.58,1.43,46.75
32.570853,-0.0132,0.0889,0.9995,-0.12,0.00,-0.06,3.58,1.44,46.75
32.601195,-0.0132,0.0879,0.9990,-0.12,0.00,-0.12,3.58,1.44,46.75
32.601195,-0.0127,0.0879,0.9990,0.00,0.00,-0.12,3.58,1.44,46.75
32.665666,-0.0132,0.0879,0.9985,0.00,0.00,-0.06,3.58,1.44,46.75
32.665666,-0.0127,0.0894,1.0000,-0.06,0.00,-0.06,3.58,1.44,46.75
32.690744,-0.0127,0.0889,0.9990,-0.06,0.00,-0.12,3.58,1.44,46.75
32.690744,-0.0117,0.0879,0.9990,-0.06,0.00,-0.06,3.58,1.44,46.75
32.719943,-0.0137,0.0879,0.9980,-0.06,0.00,-0.12,3.58,1.44,46.77
32.719943,-0.0127,0.0874,0.9990,-0.06,0.00,-0.06,3.58,1.45,46.78
32.750980,-0.0122,0.0879,0.9990,0.00,0.00,-0.06,3.58,1.45,46.80
32.750980,-0.0122,0.0884,1.0000,0.00,0.00,-0.18,3.58,1.45,46.81
32.810856,-0.0127,0.0889,1.0000,0.00,0.00,-0.06,3.58,1.45,46.82
32.810856,-0.0117,0.0874,1.0010,0.00,0.00,-0.06,3.58,1.45,46.83
32.840035,-0.0132,0.0879,1.0005,-0.06,0.00,-0.06,3.58,1.45,46.85
32.840035,-0.0122,0.0889,1.0010,0.00,0.00,-0.12,3.58,1.45,46.86
32.870778,-0.0122,0.0879,1.0000,0.00,0.00,-0.06,3.57,1.45,46.87
32.870778,-0.0132,0.0884,1.0000,-0.06,0.00,-0.12,3.57,1.44,46.89
32.931247,-0.0127,0.0879,0.9995,0.00,0.00,-0.06,3.57,1.44,46.90
32.931247,-0.0127,0.0884,1.0005,0.00,0.00,-0.06,3.57,1.44,46.91
32.962792,-0.0117,0.0894,0.9995,0.00,0.00,-0.12,3.57,1.44,46.93
32.962792,-0.0127,0.0879,0.9995,-0.06,0.00,-0.06,3.57,1.44,46.94
32.992792,-0.0127,0.0884,1.0000,-0.06,0.00,-0.06,3.57,1.44,46.95
32.992792,-0.0122,0.0879,0.9995,0.00,0.00,-0.06,3.57,1.44,46.97
33.050837,-0.0127,0.0884,0.9995,0.00,0.00,-0.06,3.57,1.44,46.98
33.050837,-0.0132,0.0869,1.0005,0.06,0.00,-0.06,3.57,1.44,46.99
33.080878,-0.0127,0.0884,0.9990,0.00,0.00,-0.12,3.57,1.44,47.01
33.080878,-0.0122,0.0879,1.0000,0.00,0.00,-0.18,3.57,1.44,47.02
33.110142,-0.0122,0.0884,0.9995,0.00,0.00,-0.12,3.56,1.44,47.03
33.110142,-0.0127,0.0879,0.9995,0.00,0.06,-0.06,3.56,1.44,47.04
33.170881,-0.0127,0.0884,1.0000,0.00,0.00,-0.12,3.56,1.44,47.05
33.170881,-0.0132,0.0894,0.9995,0.00,0.00,-0.06,3.56,1.44,47.07
33.200338,-0.0117,0.0879,1.0000,-0.06,0.00,-0.12,3.56,1.44,47.08
33.200338,-0.0122,0.0869,1.0005,0.00,0.00,-0.06,3.56,1.44,47.09
33.233417,-0.0122,0.0874,1.0010,0.00,0.00,-0.12,3.55,1.44,47.10
33.233417,-0.0117,0.0884,1.0000,0.00,0.00,-0.12,3.55,1.44,47.11
33.290867,-0.0127,0.0884,1.0005,0.00,0.00,-0.12,3.55,1.44,47.13
33.290867,-0.0127,0.0879,0.9990,0.00,0.00,-0.18,3.55,1.44,47.14
33.320104,-0.0117,0.0879,0.9995,0.06,0.00,-0.12,3.55,1.44,47.15
33.320104,-0.0117,0.0884,0.9990,0.12,0.06,-0.18,3.55,1.44,47.16
33.380896,-0.0117,0.0879,0.9980,0.18,0.00,-0.18,3.55,1.43,47.18
33.380896,-0.0132,0.0884,0.9990,0.18,0.00,-0.18,3.55,1.43,47.19
33.410120,-0.0093,0.0859,0.9971,0.12,-0.06,-0.18,3.55,1.43,47.20
33.410120,-0.0132,0.0889,0.9976,0.37,-0.12,-0.24,3.55,1.43,47.21
33.440812,-0.0137,0.0859,1.0005,0.31,0.06,-0.12,3.55,1.43,47.22
33.440812,-0.0127,0.0879,0.9990,0.18,0.06,-0.24,3.55,1.43,47.24
33.501335,-0.0107,0.0869,0.9980,0.55,0.00,-0.31,3.54,1.43,47.25
33.501335,-0.0132,0.0884,0.9995,0.61,0.00,-0.24,3.54,1.43,47.26
33.530449,-0.0132,0.0898,0.9990,0.67,0.06,-0.31,3.54,1.43,47.27
33.530449,-0.0127,0.0913,0.9995,0.61,0.00,-0.24,3.54,1.43,47.28
33.560885,-0.0132,0.0918,1.0005,0.49,0.00,-0.31,3.54,1.43,47.29
33.560885,-0.0137,0.0918,0.9995,0.31,0.00,-0.24,3.54,1.43,47.31
33.620855,-0.0146,0.0903,0.9990,0.24,0.00,-0.24,3.54,1.43,47.32
33.620855,-0.0127,0.0898,1.0000,0.12,0.00,-0.12,3.54,1.43,47.33
33.684954,-0.0117,0.0908,1.0005,0.18,0.00,-0.18,3.54,1.43,47.34
33.684954,-0.0117,0.0894,1.0005,0.31,0.00,-0.18,3.54,1.43,47.35
33.684970,-0.0132,0.0903,0.9990,0.55,0.00,-0.18,3.54,1.43,47.36
33.684970,-0.0127,0.0898,0.9985,0.55,0.00,-0.31,3.54,1.43,47.37
33.740750,-0.0132,0.0942,0.9980,0.73,0.00,-0.18,3.54,1.43,47.38
33.740750,-0.0146,0.0942,0.9990,0.18,0.00,-0.24,3.54,1.43,47.40
33.770113,-0.0117,0.0933,0.9976,0.06,0.00,-0.12,3.54,1.43,47.41
33.770113,-0.0137,0.0928,0.9961,0.06,0.00,-0.18,3.55,1.43,47.42
33.801181,-0.0132,0.0933,1.0000,0.00,0.06,-0.18,3.55,1.43,47.43
33.801181,-0.0127,0.0942,0.9995,0.06,0.00,-0.06,3.55,1.43,47.44
33.860872,-0.0132,0.0918,1.0015,-0.12,0.00,0.00,3.55,1.43,47.46
33.860872,-0.0117,0.0923,1.0010,-0.24,0.00,-0.06,3.55,1.43,47.47
33.890081,-0.0122,0.0942,1.0005,0.18,-0.06,-0.12,3.55,1.43,47.48
33.890081,-0.0127,0.0933,1.0015,-0.12,0.00,-0.06,3.55,1.43,47.49
33.920880,-0.0117,0.0928,1.0005,-0.43,0.00,-0.12,3.55,1.43,47.50
33.920880,-0.0107,0.0918,0.9990,-0.37,0.00,-0.06,3.55,1.43,47.51
33.980210,-0.0132,0.0913,0.9995,-0.24,0.00,-0.12,3.55,1.43,47.52
33.980210,-0.0137,0.0913,0.9990,-0.24,0.06,-0.06,3.55,1.43,47.53
34.010898,-0.0137,0.0938,0.9980,-0.18,0.06,-0.12,3.55,1.43,47.54
34.010898,-0.0122,0.0933,0.9980,-0.24,0.00,-0.12,3.55,1.43,47.55
34.040121,-0.0132,0.0928,0.9995,-0.31,0.00,-0.06,3.55,1.43,47.57
34.040121,-0.0122,0.0952,0.9980,-0.37,0.00,0.00,3.55,1.43,47.58
34.101254,-0.0137,0.0908,0.9995,-0.67,0.00,0.00,3.56,1.43,47.59
34.101254,-0.0117,0.0918,0.9966,-0.92,0.00,0.00,3.56,1.43,47.60
34.130409,-0.0132,0.0898,0.9980,-0.55,0.00,-0.06,3.56,1.43,47.61
34.130409,-0.0146,0.0923,0.9990,-0.85,0.00,-0.06,3.56,1.43,47.62
34.161001,-0.0137,0.0913,0.9961,-0.92,0.00,0.00,3.56,1.43,47.63
34.161001,-0.0171,0.0864,1.0059,-0.67,0.00,0.06,3.56,1.43,47.64
34.220946,-0.0122,0.0962,0.9985,-1.34,0.00,0.06,3.56,1.43,47.65
34.220946,-0.0127,0.0864,1.0005,-0.73,0.00,0.06,3.56,1.43,47.66
34.250140,-0.0127,0.0864,1.0020,-1.04,0.00,0.06,3.56,1.43,47.68
34.250140,-0.0107,0.0908,0.9976,-0.79,0.06,0.00,3.56,1.43,47.69
34.280948,-0.0142,0.0889,1.0029,-0.43,0.00,0.00,3.56,1.43,47.70
34.280948,-0.0161,0.0913,1.0000,-1.04,0.00,0.00,3.56,1.43,47.71
34.340915,-0.0112,0.0874,1.0000,-0.98,0.00,0.00,3.56,1.43,47.71
34.340915,-0.0117,0.0874,0.9980,-0.73,0.00,0.00,3.56,1.43,47.72
34.370123,-0.0122,0.0874,0.9976,-0.67,0.00,0.00,3.56,1.43,47.74
34.370123,-0.0122,0.0854,0.9985,-0.79,0.00,0.00,3.55,1.43,47.75
34.401342,-0.0112,0.0859,0.9980,-0.67,0.00,0.00,3.55,1.43,47.76
34.401342,-0.0122,0.0854,0.9985,-0.43,0.00,-0.06,3.55,1.43,47.77
34.460879,-0.0127,0.0864,0.9980,-0.43,0.00,0.00,3.55,1.42,47.78
34.460879,-0.0107,0.0864,0.9990,-0.43,0.00,-0.06,3.55,1.42,47.79
34.490146,-0.0127,0.0845,0.9995,-0.49,0.00,0.00,3.55,1.42,47.80
34.490146,-0.0127,0.0845,1.0010,-0.43,0.00,0.00,3.55,1.42,47.81
34.520882,-0.0132,0.0854,1.0000,-0.55,0.00,-0.06,3.55,1.42,47.82
34.520882,-0.0122,0.0830,1.0000,-0.67,0.00,0.00,3.55,1.42,47.83
34.580935,-0.0117,0.0815,1.0005,-0.55,0.00,-0.12,3.54,1.42,47.84
34.580935,-0.0122,0.0815,1.0005,-0.18,0.00,-0.06,3.54,1.42,47.85
34.610163,-0.0127,0.0820,1.0005,-0.06,0.00,-0.06,3.54,1.42,47.86
34.610163,-0.0127,0.0825,1.0000,-0.12,0.00,-0.12,3.54,1.42,47.87
34.640907,-0.0122,0.0820,1.0000,0.00,0.00,-0.12,3.54,1.42,47.88
34.640907,-0.0132,0.0835,0.9995,0.12,0.00,-0.12,3.53,1.42,47.88
34.705899,-0.0122,0.0859,0.9976,0.06,0.06,-0.18,3.53,1.42,47.89
34.705899,-0.0142,0.0845,0.9980,0.12,0.00,-0.18,3.53,1.42,47.91
34.730321,-0.0132,0.0864,0.9990,0.06,0.06,-0.24,3.53,1.42,47.92
34.730321,-0.0132,0.0850,0.9980,0.12,0.06,-0.18,3.53,1.42,47.93
34.790938,-0.0117,0.0869,0.9971,0.31,0.00,-0.18,3.53,1.42,47.93
34.790938,-0.0146,0.0859,0.9990,0.06,0.00,-0.18,3.52,1.42,47.94
34.820142,-0.0142,0.0869,1.0015,0.06,0.00,-0.12,3.52,1.42,47.96
34.820142,-0.0132,0.0874,0.9985,-0.06,0.00,-0.06,3.52,1.42,47.97
34.850928,-0.0127,0.0864,1.0010,-0.24,0.00,-0.06,3.52,1.42,47.97
34.850928,-0.0132,0.0845,1.0005,-0.24,0.00,-0.06,3.52,1.42,47.98
34.910944,-0.0122,0.0854,1.0015,-0.18,-0.06,-0.06,3.52,1.42,47.99
34.910944,-0.0122,0.0835,1.0005,-0.06,0.00,-0.06,3.52,1.42,48.00
34.940104,-0.0127,0.0840,1.0005,0.06,0.00,-0.12,3.52,1.42,48.01
34.940104,-0.0122,0.0859,1.0005,0.06,0.00,-0.12,3.52,1.42,48.02
34.970966,-0.0122,0.0859,0.9995,0.18,-0.06,-0.18,3.51,1.42,48.03
34.970966,-0.0117,0.0874,0.9990,0.06,0.00,-0.06,3.51,1.42,48.04
35.031580,-0.0122,0.0859,0.9985,0.00,0.00,-0.12,3.51,1.42,48.05
35.031580,-0.0127,0.0869,0.9990,0.00,0.00,-0.06,3.51,1.42,48.06
35.060353,-0.0122,0.0859,0.9995,-0.06,0.00,-0.12,3.51,1.42,48.07
35.060353,-0.0107,0.0869,0.9985,-0.18,0.00,0.00,3.50,1.42,48.08
35.090949,-0.0122,0.0869,0.9995,-0.12,0.00,-0.06,3.50,1.42,48.09
35.090949,-0.0117,0.0845,0.9995,-0.12,0.06,-0.06,3.50,1.42,48.09
35.150965,-0.0112,0.0859,0.9990,-0.18,0.00,0.00,3.50,1.42,48.10
35.150965,-0.0132,0.0850,1.0010,-0.18,0.00,0.00,3.50,1.42,48.11
35.180223,-0.0117,0.0840,1.0000,-0.06,0.00,-0.06,3.50,1.42,48.12
35.180223,-0.0122,0.0830,0.9990,0.00,0.00,-0.12,3.50,1.42,48.13
35.210962,-0.0127,0.0835,1.0000,0.12,0.00,-0.12,3.50,1.42,48.14
35.210962,-0.0132,0.0830,0.9995,0.24,0.00,-0.18,3.50,1.42,48.15
35.270947,-0.0132,0.0830,1.0000,0.49,0.00,-0.18,3.49,1.42,48.16
35.270947,-0.0137,0.0850,0.9990,0.61,0.00,-0.31,3.49,1.42,48.17
35.301334,-0.0132,0.0859,0.9995,0.61,0.00,-0.31,3.49,1.42,48.18
35.301334,-0.0127,0.0840,0.9995,0.67,0.00,-0.31,3.49,1.42,48.19
35.330489,-0.0122,0.0854,0.9990,0.61,0.00,-0.31,3.49,1.42,48.20
35.330489,-0.0137,0.0864,0.9985,0.85,0.00,-0.37,3.49,1.42,48.20
35.390891,-0.0132,0.0859,0.9985,0.67,0.00,-0.37,3.49,1.42,48.21
35.390891,-0.0146,0.0835,1.0000,0.85,0.06,-0.43,3.49,1.42,48.22
35.420151,-0.0122,0.0977,0.9966,1.10,-0.06,-0.31,3.48,1.42,48.22
35.420151,-0.0156,0.0869,1.0000,0.92,0.00,-0.31,3.48,1.42,48.22
35.450904,-0.0137,0.0928,1.0005,0.24,0.00,-0.18,3.48,1.42,48.22
35.450904,-0.0146,0.0908,0.9990,0.24,0.00,-0.18,3.48,1.42,48.22
35.510941,-0.0117,0.0894,1.0010,0.18,-0.06,-0.12,3.48,1.42,48.22
35.510941,-0.0127,0.0894,1.0010,0.12,0.00,-0.18,3.49,1.42,48.22
35.540181,-0.0137,0.0913,1.0000,0.00,0.00,-0.12,3.49,1.42,48.22
35.540181,-0.0132,0.0908,1.0010,0.12,0.00,-0.12,3.49,1.42,48.22
35.570990,-0.0112,0.0903,0.9990,0.18,0.00,-0.06,3.49,1.42,48.22
35.570990,-0.0117,0.0894,0.9990,0.18,0.00,-0.12,3.49,1.42,48.22
35.630918,-0.0127,0.0889,1.0000,0.18,0.00,-0.12,3.49,1.42,48.22
35.630918,-0.0132,0.0898,0.9995,0.31,0.00,-0.12,3.49,1.42,48.22
35.660132,-0.0137,0.0894,1.0005,0.24,0.00,-0.12,3.49,1.42,48.22
35.660132,-0.0122,0.0889,0.9995,0.18,0.00,-0.12,3.49,1.42,48.22
35.725283,-0.0137,0.0894,0.9995,0.37,0.00,-0.18,3.49,1.42,48.22
35.725283,-0.0127,0.0884,0.9990,0.43,0.00,-0.12,3.49,1.42,48.22
35.750840,-0.0132,0.0908,0.9985,0.31,-0.06,-0.18,3.49,1.42,48.22
35.750840,-0.0132,0.0889,0.9990,0.00,-0.06,-0.06,3.49,1.42,48.22
35.780042,-0.0078,0.0933,0.9971,0.24,-0.24,-0.06,3.49,1.42,48.22
35.780042,-0.0161,0.0850,1.0010,-0.24,-0.06,-0.12,3.49,1.42,48.22
35.810904,-0.0107,0.0894,0.9976,0.00,0.24,-0.06,3.49,1.42,48.22
35.810904,-0.0088,0.0864,0.9985,0.12,0.06,-0.12,3.49,1.42,48.22
35.871956,-0.0112,0.0864,0.9985,0.61,-0.06,-0.24,3.49,1.42,48.22
35.871956,-0.0127,0.0898,0.9995,0.67,0.00,-0.24,3.49,1.42,48.22
35.904005,-0.0127,0.0908,0.9976,0.61,0.00,-0.24,3.49,1.42,48.22
35.904005,-0.0127,0.0894,0.9980,0.43,0.00,-0.24,3.49,1.42,48.22
35.933243,-0.0132,0.0874,0.9985,0.49,0.06,-0.24,3.49,1.42,48.22
35.933243,-0.0151,0.0933,1.0000,0.67,0.00,-0.24,3.50,1.42,48.22
35.990936,-0.0127,0.0962,0.9961,0.49,0.00,-0.18,3.50,1.43,48.22
35.990936,-0.0146,0.0972,1.0015,0.06,-0.12,-0.12,3.50,1.43,48.22
36.020150,-0.0132,0.0938,1.0024,-0.18,-0.06,-0.18,3.50,1.43,48.22
36.020150,-0.0142,0.0938,0.9995,-0.24,0.00,-0.12,3.50,1.43,48.22
36.050963,-0.0132,0.0918,1.0024,-0.55,0.06,-0.06,3.50,1.43,48.22
36.050963,-0.0112,0.0928,1.0010,-0.61,0.00,-0.06,3.50,1.43,48.22
36.111012,-0.0117,0.0898,1.0010,-0.49,0.00,-0.06,3.50,1.43,48.22
36.111012,-0.0112,0.0903,1.0000,-0.31,0.00,-0.06,3.50,1.43,48.22
36.140168,-0.0122,0.0918,0.9985,-0.18,0.00,-0.06,3.50,1.43,48.22
36.140168,-0.0117,0.0928,0.9985,-0.43,0.06,-0.06,3.51,1.43,48.22
36.201335,-0.0122,0.0918,0.9976,-0.37,0.00,0.00,3.51,1.43,48.22
36.201335,-0.0137,0.0947,0.9980,-0.55,0.00,0.00,3.51,1.43,48.22
36.230578,-0.0127,0.0938,0.9976,-1.16,0.00,0.06,3.51,1.43,48.22
36.230578,-0.0122,0.0923,0.9971,-1.59,0.00,0.12,3.52,1.43,48.22
36.260901,-0.0112,0.0889,0.9995,-1.83,0.00,0.18,3.52,1.43,48.22
36.260901,-0.0112,0.0908,0.9995,-1.22,0.06,0.18,3.52,1.43,48.22
36.320940,-0.0098,0.0903,1.0000,-1.46,0.12,0.18,3.52,1.43,48.22
36.320940,-0.0122,0.0908,1.0000,-1.46,0.06,0.24,3.52,1.43,48.22
36.352840,-0.0073,0.0908,1.0000,-1.34,0.06,0.18,3.52,1.43,48.22
36.352840,-0.0112,0.0913,1.0000,-1.71,0.06,0.18,3.52,1.43,48.22
36.381074,-0.0112,0.0908,0.9980,-1.77,0.06,0.18,3.52,1.43,48.22
36.381074,-0.0166,0.0913,1.0015,-2.14,0.00,0.37,3.52,1.43,48.22
36.440957,-0.0171,0.0923,1.0005,-2.62,0.00,0.37,3.53,1.43,48.22
36.440957,-0.0132,0.0811,1.0020,-2.50,-0.12,0.49,3.53,1.43,48.22
36.470229,-0.0107,0.0771,1.0063,-2.38,0.00,0.55,3.53,1.43,48.22
36.470229,-0.0186,0.0796,1.0054,-1.34,0.00,0.67,3.53,1.43,48.22
36.501224,-0.0181,0.0781,1.0034,-0.92,0.37,0.67,3.53,1.43,48.22
36.501224,-0.0166,0.0786,1.0020,-0.67,0.00,0.49,3.53,1.43,48.22
36.560962,-0.0161,0.0767,1.0044,-0.31,0.12,0.61,3.53,1.44,48.22
36.560962,-0.0161,0.0767,1.0034,0.06,0.00,0.49,3.53,1.44,48.22
36.590147,-0.0132,0.0811,1.0015,0.06,0.12,0.49,3.53,1.44,48.22
36.590147,-0.0107,0.0791,1.0024,-0.18,0.06,0.24,3.53,1.44,48.22
36.620932,-0.0146,0.0811,1.0010,-0.37,0.18,0.24,3.53,1.44,48.22
36.620932,-0.0127,0.0781,1.0010,-0.24,0.06,0.37,3.53,1.44,48.22
36.680949,-0.0132,0.0801,0.9995,-0.31,0.00,0.24,3.53,1.44,48.22
36.680949,-0.0107,0.0811,0.9971,-0.18,0.00,0.18,3.53,1.44,48.22
36.745947,-0.0117,0.0781,0.9980,-0.24,0.00,0.12,3.53,1.44,48.22
36.745947,-0.0117,0.0811,0.9976,0.00,0.00,0.18,3.53,1.44,48.22
36.745962,-0.0107,0.0801,0.9961,-0.12,-0.12,0.12,3.53,1.44,48.22
36.745962,-0.0098,0.0820,0.9961,-0.37,-0.06,0.12,3.53,1.44,48.22
36.801168,-0.0088,0.0811,0.9946,-0.49,-0.18,0.06,3.53,1.44,48.22
36.801168,-0.0112,0.0776,0.9927,-0.37,0.00,0.06,3.53,1.44,48.22
36.830407,-0.0098,0.0771,0.9941,-0.61,0.06,0.00,3.52,1.44,48.22
36.830407,-0.0093,0.0767,0.9912,-0.31,0.00,-0.12,3.52,1.44,48.22
36.860927,-0.0112,0.0747,0.9917,-0.31,0.12,-0.31,3.52,1.44,48.22
36.860927,-0.0112,0.0732,0.9907,-0.18,0.12,-0.55,3.52,1.44,48.22
36.920943,-0.0088,0.0728,0.9941,0.06,0.06,-0.73,3.52,1.44,48.22
36.920943,-0.0112,0.0728,0.9961,0.06,0.06,-0.85,3.52,1.44,48.22
36.950048,-0.0098,0.0718,0.9985,0.37,0.00,-1.10,3.52,1.44,48.22
36.950048,-0.0117,0.0742,1.0005,1.28,0.12,-1.10,3.54,1.45,48.20
37.010958,-0.0122,0.0698,1.0015,1.53,0.18,-1.34,3.56,1.46,48.18
37.010958,-0.0127,0.0723,1.0005,1.83,0.12,-1.46,3.60,1.46,48.15
37.040309,-0.0176,0.0762,1.0024,2.81,0.24,-1.59,3.65,1.47,48.13
37.040309,-0.0176,0.0767,1.0024,2.93,0.12,-1.59,3.71,1.48,48.10
37.070931,-0.0200,0.0845,1.0015,2.99,0.12,-1.46,3.77,1.48,48.07
37.070931,-0.0210,0.0889,1.0010,2.81,0.12,-1.28,3.83,1.49,48.04
37.101362,-0.0210,0.0913,1.0020,2.50,0.06,-1.10,3.88,1.49,48.02
37.101362,-0.0210,0.0928,1.0020,2.14,0.06,-0.73,3.93,1.49,48.00
37.160929,-0.0186,0.0923,1.0015,1.77,0.06,-0.67,3.97,1.50,47.99
37.160929,-0.0171,0.0928,1.0020,1.34,0.00,-0.55,4.00,1.50,47.99
37.191305,-0.0171,0.0962,1.0020,1.10,0.00,-0.49,4.03,1.50,47.98
37.191305,-0.0137,0.0947,1.0005,0.85,0.00,-0.37,4.05,1.50,47.97
37.220306,-0.0127,0.0977,1.0024,0.61,-0.24,-0.43,4.07,1.49,47.97
37.220306,-0.0122,0.0977,1.0005,0.43,-0.18,-0.31,4.08,1.49,47.96
37.280960,-0.0098,0.0977,0.9995,0.18,-0.18,-0.18,4.09,1.49,47.96
37.280960,-0.0083,0.0977,1.0010,0.00,-0.31,-0.18,4.09,1.48,47.95
37.310183,-0.0103,0.0952,1.0000,-0.18,-0.31,-0.18,4.09,1.48,47.95
37.310183,-0.0088,0.0942,1.0010,-0.31,-0.18,-0.12,4.09,1.47,47.95
37.341368,-0.0098,0.0898,1.0010,-0.12,-0.12,-0.12,4.08,1.47,47.94
37.341368,-0.0098,0.0879,1.0010,-0.06,-0.12,-0.24,4.08,1.46,47.94
37.401231,-0.0112,0.0898,1.0010,0.00,-0.06,-0.12,4.08,1.46,47.94
37.401231,-0.0103,0.0864,1.0000,0.06,0.00,-0.18,4.09,1.46,47.94
37.430442,-0.0103,0.0874,1.0005,0.06,0.00,-0.12,4.09,1.46,47.94
37.430442,-0.0112,0.0869,1.0005,0.00,0.06,-0.12,4.09,1.46,47.94
37.461000,-0.0098,0.0840,0.9966,-0.12,0.18,-0.24,4.09,1.46,47.94
