t,ax,ay,az,gx,gy,gz,wx,wy,wz
0.013269,0.4609,0.2007,0.8555,1.95,-26.37,43.03,-1.46,0.78,0.00
0.013269,0.4863,0.1631,0.8491,-1.22,-22.83,41.63,-1.46,0.78,0.00
0.013518,0.5215,0.1162,0.8320,5.00,-26.12,41.20,-1.46,0.78,0.00
0.013518,0.5220,0.1445,0.8315,1.65,-26.06,35.34,-1.46,0.78,0.00
0.070835,0.5396,0.1250,0.8311,3.36,-12.08,25.70,-1.46,0.78,0.00
0.070835,0.5400,0.1299,0.8359,10.50,-1.83,15.93,-1.46,0.78,0.00
0.099950,0.5386,0.1167,0.8315,16.97,-1.10,10.62,-1.46,0.78,0.00
0.099950,0.5513,0.1045,0.8525,25.70,-9.95,13.12,-1.46,0.78,0.00
0.130817,0.5400,0.1562,0.8403,33.57,-7.20,8.30,-1.46,0.78,0.00
0.130817,0.5327,0.1646,0.8203,43.52,-4.21,6.59,-1.46,0.78,0.00
0.190807,0.5239,0.1782,0.8018,41.38,1.10,9.28,-1.46,0.78,0.00
0.190807,0.5195,0.1992,0.7622,28.44,2.26,12.39,-1.46,0.78,0.00
0.222840,0.5176,0.2095,0.7622,0.67,3.54,12.15,-1.46,0.78,0.00
0.222840,0.5361,0.1748,0.7964,-4.64,2.93,12.94,-1.46,0.78,0.00
0.252605,0.5552,0.1602,0.8335,-3.78,1.10,9.83,-1.46,0.78,0.00
0.252605,0.5674,0.1421,0.8481,-6.23,-1.16,7.81,-1.46,0.78,0.00
0.310672,0.5713,0.1401,0.8359,3.66,-2.08,3.78,-1.46,0.78,0.00
0.310672,0.5737,0.1372,0.8228,5.00,-3.17,1.95,-1.46,0.78,0.00
0.339908,0.5610,0.1543,0.8184,-0.18,-4.46,-3.54,-1.46,0.78,0.00
0.339908,0.5352,0.1689,0.8232,1.28,-2.75,-4.82,-1.46,0.78,0.00
0.372780,0.5454,0.1777,0.8096,-5.19,-0.37,-5.62,-1.46,0.78,0.00
0.372780,0.5386,0.1777,0.8174,-7.93,0.92,-6.10,-1.46,0.78,0.00
0.432769,0.5400,0.1758,0.8062,-18.01,0.12,-7.87,-1.46,0.78,0.00
0.432769,0.5386,0.1655,0.8335,-21.24,-2.56,-9.95,-1.46,0.78,0.00
0.460940,0.5571,0.1479,0.8184,-18.37,-1.89,-9.89,-1.46,0.78,0.00
0.460940,0.5664,0.1055,0.8066,-26.18,-2.50,-8.67,-1.46,0.78,0.00
0.490087,0.5400,0.1519,0.8320,-24.72,2.44,-12.63,-1.46,0.78,0.00
0.490087,0.5454,0.1445,0.8271,-14.22,1.40,-14.71,-1.46,0.78,0.00
0.550732,0.4922,0.1938,0.8740,5.25,-16.42,-6.77,-1.46,0.78,0.00
0.550732,0.5068,0.1978,0.8247,2.87,-12.63,-4.70,-1.46,0.78,0.00
0.580225,0.5283,0.1816,0.8130,5.07,-12.02,-5.25,-1.46,0.78,0.00
0.580225,0.5352,0.1748,0.8042,2.87,-16.42,-6.71,-1.46,0.78,0.00
0.612682,0.5522,0.1655,0.7993,1.71,-18.19,-7.93,-1.46,0.78,0.00
0.612682,0.5684,0.1567,0.8086,10.19,-16.30,-9.34,-1.46,0.78,0.00
0.670495,0.5679,0.1621,0.8140,11.41,-11.47,-9.46,-1.46,0.78,0.00
0.670495,0.5557,0.1851,0.8032,13.67,-8.91,-9.40,-1.46,0.78,0.00
0.699900,0.5483,0.2114,0.7896,11.78,-10.80,-10.56,-1.46,0.78,0.00
0.699900,0.5576,0.1997,0.7920,11.96,-12.45,-11.17,-1.46,0.78,0.00
0.730671,0.5645,0.1948,0.7974,11.96,-12.08,-10.56,-1.46,0.78,0.00
0.730671,0.5713,0.1909,0.8018,13.43,-8.06,-9.22,-1.46,0.78,0.00
0.790858,0.5776,0.1997,0.7988,11.66,1.16,-10.38,-1.46,0.78,0.00
0.790858,0.5737,0.2090,0.7812,15.08,4.88,-12.08,-1.46,0.78,0.00
0.819971,0.5664,0.2124,0.7739,12.08,4.03,-13.31,-1.46,0.78,0.00
0.819971,0.5669,0.2095,0.7866,6.23,1.71,-13.79,-1.46,0.78,0.00
0.850777,0.5708,0.2183,0.7935,2.26,6.84,-12.70,-1.46,0.78,0.00
0.850777,0.5645,0.2231,0.7939,-0.37,11.17,-12.21,-1.46,0.78,0.00
0.910818,0.5557,0.2217,0.7900,-1.28,10.93,-9.46,-1.46,0.78,0.00
0.910818,0.5527,0.2310,0.7871,-3.91,12.27,-6.41,-1.46,0.78,0.00
0.939939,0.5503,0.2251,0.7964,-3.78,16.05,-5.55,-1.46,0.78,0.00
0.939939,0.5410,0.2329,0.8022,-4.03,12.57,-3.78,-1.46,0.78,0.00
0.970859,0.5361,0.2329,0.8042,-2.81,10.62,-3.11,-1.46,0.78,0.00
0.970859,0.5352,0.2285,0.8140,-2.20,10.74,-2.93,-1.46,0.78,0.00
1.030812,0.5298,0.2334,0.8135,-3.60,9.64,-2.56,-1.46,0.78,0.00
1.030812,0.5322,0.2305,0.8052,-3.30,5.68,-1.89,-1.46,0.78,0.00
1.061265,0.5332,0.2266,0.8027,-3.54,6.23,-2.14,-1.46,0.78,0.00
1.061265,0.5259,0.2290,0.8047,-5.68,8.36,-2.56,-1.46,0.78,0.00
1.090461,0.5215,0.2329,0.8159,-8.54,5.98,-2.26,-1.46,0.78,0.00
1.090461,0.5234,0.2188,0.8135,-11.47,4.15,-2.32,-1.46,0.78,0.00
1.150803,0.5278,0.2124,0.8281,-11.66,6.84,-1.95,-1.46,0.78,0.00
1.150803,0.5210,0.2148,0.8281,-5.68,9.58,-1.95,-1.46,0.78,0.00
1.180293,0.5210,0.2148,0.8223,-0.24,3.48,-2.26,-1.46,0.78,0.00
1.180293,0.5176,0.2119,0.8218,0.06,5.55,-3.42,-1.46,0.78,0.00
1.210843,0.5156,0.2109,0.8091,0.12,11.29,-5.86,-1.46,0.78,0.00
1.210843,0.5088,0.2173,0.8047,-3.48,14.16,-7.02,-1.46,0.78,0.00
1.271219,0.5054,0.2163,0.8281,-7.20,18.62,-6.59,-1.46,0.78,0.00
1.271219,0.5029,0.2173,0.8433,-6.53,15.26,-5.55,-1.46,0.78,0.00
1.300227,0.5054,0.2104,0.8496,-2.38,12.82,-4.76,-1.46,0.78,0.00
1.300227,0.4932,0.2124,0.8354,-4.03,7.81,-4.52,-1.46,0.78,0.00
1.330714,0.4854,0.2158,0.8315,-8.00,7.14,-5.68,-1.46,0.78,0.00
1.330714,0.4829,0.2148,0.8394,-14.16,5.98,-5.37,-1.46,0.78,0.00
1.390832,0.4780,0.2231,0.8525,-9.52,6.71,-2.56,-1.46,0.78,0.00
1.390832,0.4785,0.2168,0.8545,-7.75,7.08,-1.65,-1.46,0.78,0.00
1.420962,0.4746,0.2134,0.8442,-9.09,5.62,-1.59,-1.46,0.78,0.00
1.420962,0.4756,0.2046,0.8398,-9.58,3.72,-1.46,-1.46,0.78,0.00
1.481115,0.4722,0.1987,0.8540,-10.99,3.11,-2.87,-1.46,0.78,0.00
1.481115,0.4775,0.1992,0.8608,-12.94,4.58,-4.94,-1.46,0.78,0.00
1.510061,0.4810,0.1909,0.8569,-11.96,8.61,-6.65,-1.46,0.78,0.00
1.510061,0.4761,0.1875,0.8472,-10.07,12.39,-6.84,-1.46,0.78,0.00
1.540739,0.4683,0.1924,0.8662,-8.24,8.42,-5.37,-1.46,0.78,0.00
1.540739,0.4644,0.1860,0.8677,-9.28,7.32,-5.68,-1.46,0.78,0.00
1.600858,0.4604,0.1890,0.8779,-8.00,8.12,-5.98,-1.46,0.78,0.00
1.600858,0.4590,0.1899,0.8608,-5.98,6.53,-4.52,-1.46,0.78,0.00
1.630055,0.4521,0.1904,0.8594,-8.79,4.33,-3.17,-1.46,0.78,0.00
1.630055,0.4536,0.1865,0.8643,-9.46,3.72,-2.38,-1.46,0.78,0.00
1.660769,0.4546,0.1846,0.8584,-13.43,3.30,-2.32,-1.46,0.78,0.00
1.660769,0.4507,0.1792,0.8574,-19.78,3.36,-2.26,-1.46,0.78,0.00
1.720726,0.4487,0.1680,0.8677,-24.90,3.05,-2.56,-1.46,0.78,0.00
1.720726,0.4570,0.1572,0.8804,-21.00,2.62,-2.56,-1.46,0.78,0.00
1.749944,0.4541,0.1494,0.8887,-18.80,3.66,-3.11,-1.46,0.78,0.00
1.749944,0.4478,0.1523,0.8838,-12.57,2.44,-3.11,-1.46,0.78,0.00
1.780999,0.4404,0.1509,0.8809,-7.45,1.65,-2.56,-1.46,0.78,0.00
1.780999,0.4395,0.1533,0.8892,-4.21,1.53,-2.14,-1.46,0.78,0.00
1.840713,0.4448,0.1499,0.8862,-0.24,2.14,-1.22,-1.46,0.78,0.00
1.840713,0.4468,0.1470,0.8750,-0.06,2.14,-0.92,-1.46,0.78,0.00
1.870113,0.4434,0.1509,0.8696,-1.10,1.65,-0.61,-1.46,0.78,0.00
1.870113,0.4443,0.1455,0.8779,-0.49,2.14,-0.31,-1.46,0.78,0.00
1.900778,0.4468,0.1475,0.8848,1.34,1.77,-0.12,-1.46,0.78,0.00
1.900778,0.4443,0.1426,0.8872,1.53,1.95,-0.43,-1.46,0.78,0.00
1.965445,0.4429,0.1460,0.8872,0.43,0.31,-1.22,-1.46,0.78,0.00
1.965445,0.4419,0.1479,0.8872,1.65,0.31,-1.59,-1.46,0.78,0.00
1.990971,0.4409,0.1528,0.8784,3.23,0.37,-1.28,-1.46,0.78,0.00
1.990971,0.4380,0.1543,0.8765,7.63,1.04,-0.31,-1.46,0.78,0.00
2.021437,0.4370,0.1597,0.8730,5.80,1.22,-0.12,-1.46,0.78,0.00
2.021437,0.4375,0.1597,0.8857,7.45,1.59,0.55,-1.46,0.78,0.00
2.080910,0.4424,0.1562,0.8706,4.39,1.22,0.24,-1.46,0.78,0.00
2.080910,0.4424,0.1548,0.8760,-0.18,0.61,-0.37,-1.46,0.78,0.00
2.110093,0.4463,0.1494,0.8989,2.26,1.16,0.00,-1.46,0.78,0.00
2.110093,0.4497,0.1475,0.9033,8.85,2.01,-0.06,-1.46,0.78,0.00
2.140757,0.4438,0.1562,0.8823,11.72,1.77,0.00,-1.46,0.78,0.00
2.140757,0.4399,0.1636,0.8892,23.32,3.36,0.49,-1.46,0.78,0.00
2.200841,0.4404,0.1602,0.9263,48.03,4.94,1.16,-1.46,0.78,0.00
2.200841,0.4312,0.1855,0.8955,72.45,5.25,3.72,-1.46,0.78,0.00
2.230124,0.4487,0.2085,0.8589,61.04,13.31,-0.49,-1.46,0.78,0.00
2.230124,0.4414,0.2319,0.8213,35.34,11.35,-3.54,-1.46,0.78,0.00
2.260796,0.4268,0.2529,0.8320,16.36,4.94,-4.46,-1.46,0.78,0.00
2.260796,0.4033,0.2759,0.8257,-3.11,-0.55,-4.58,-1.46,0.78,0.00
2.320770,0.3945,0.2754,0.8545,-11.05,-1.04,-1.71,-1.46,0.78,0.00
2.320770,0.3999,0.2651,0.8511,-20.26,-0.37,-0.31,-1.46,0.78,0.00
2.350322,0.4072,0.2500,0.8638,-25.57,-1.77,0.85,-1.46,0.78,0.00
2.350322,0.4287,0.2222,0.8657,-34.85,-2.44,1.22,-1.46,0.78,0.00
2.380509,0.4395,0.1963,0.8960,-30.27,-3.66,0.61,-1.46,0.78,0.00
2.380509,0.4448,0.1851,0.9009,-12.76,-3.30,0.12,-1.46,0.78,0.00
2.440992,0.4478,0.1870,0.8887,-9.58,-1.95,-1.10,-1.46,0.78,0.00
2.440992,0.4395,0.1899,0.8794,-7.08,-2.44,-1.89,-1.46,0.78,0.00
2.470220,0.4238,0.2041,0.8647,-8.24,-2.56,-1.83,-1.46,0.78,0.00
2.470220,0.4199,0.2065,0.8740,-10.68,-3.05,-1.40,-1.46,0.78,0.00
2.500885,0.4229,0.2002,0.8843,-7.02,-3.30,-0.85,-1.46,0.78,0.00
2.500885,0.4268,0.1968,0.8877,-1.65,-2.81,0.61,-1.46,0.78,0.00
2.560875,0.4331,0.1880,0.8848,-2.44,-3.42,0.24,-1.46,0.78,0.00
2.560875,0.4399,0.1851,0.8706,-1.89,-4.33,-0.55,-1.46,0.78,0.00
2.590103,0.4448,0.1792,0.8608,-4.82,-2.26,-4.52,-1.46,0.78,0.00
2.590103,0.4375,0.1846,0.8486,-11.54,-4.15,-8.73,-1.46,0.78,0.00
2.622750,0.4077,0.1807,0.8481,-20.20,-19.47,-18.19,-1.46,0.78,0.00
2.622750,0.4097,0.1958,0.8564,-30.46,-33.75,-26.12,-1.46,0.78,0.00
2.680940,0.4268,0.1919,0.8833,-47.49,-16.05,-34.85,-1.46,0.78,0.00
2.680940,0.4468,0.1699,0.8662,-37.72,-12.08,-23.93,-1.46,0.78,0.00
2.710041,0.4551,0.1860,0.8657,-15.01,-5.74,-12.45,-1.46,0.78,0.00
2.710041,0.4795,0.1528,0.8716,-4.76,1.16,-0.67,-1.46,0.78,0.00
2.770750,0.4912,0.1362,0.8853,-10.19,3.72,1.22,-1.59,0.82,75.60
2.770750,0.4990,0.1226,0.8848,-10.25,3.42,0.67,-1.77,0.90,75.63
2.799982,0.4883,0.1250,0.8770,-9.77,4.27,0.00,-1.98,0.94,75.64
2.799982,0.4678,0.1372,0.8784,-9.64,5.49,0.79,-2.16,0.96,75.64
2.830702,0.4502,0.1440,0.8784,-9.03,6.84,2.44,-2.30,0.96,75.68
2.830702,0.4375,0.1509,0.8877,-8.73,4.03,1.28,-2.42,0.84,75.74
2.890869,0.4312,0.1533,0.8887,0.43,4.09,2.87,-2.38,0.62,75.81
2.890869,0.4307,0.1504,0.8896,0.49,1.65,1.71,-2.24,0.27,75.90
2.920134,0.4385,0.1460,0.8823,-1.95,-1.83,0.85,-2.06,-0.27,75.98
2.920134,0.4565,0.1294,0.8813,-0.37,-2.20,0.18,-1.85,-0.97,76.06
2.951036,0.4653,0.1294,0.8770,-2.38,-2.87,-0.85,-1.61,-1.79,76.14
2.951036,0.4678,0.1245,0.8740,-0.61,-0.79,-0.85,-1.34,-2.70,76.21
3.010773,0.4614,0.1294,0.8745,1.40,1.40,-1.22,-0.99,-3.65,76.29
3.010773,0.4473,0.1401,0.8794,1.46,0.92,-1.71,-0.60,-4.66,76.38
3.039988,0.4399,0.1479,0.8809,-0.18,0.06,-1.22,-0.21,-5.75,76.46
3.039988,0.4385,0.1494,0.8735,0.37,0.49,-0.18,0.20,-6.86,76.56
3.070830,0.4429,0.1470,0.8789,1.34,1.46,1.04,0.62,-7.97,76.67
3.070830,0.4517,0.1377,0.8818,3.60,2.38,1.28,1.12,-9.04,76.82
3.130892,0.4487,0.1313,0.8770,1.04,0.43,-0.43,1.58,-10.11,76.94
3.130892,0.4521,0.1470,0.8799,2.56,-0.73,0.06,2.01,-11.16,77.03
3.160012,0.4668,0.1206,0.8770,-2.08,-3.42,-0.67,2.39,-12.24,77.11
3.160012,0.4683,0.1235,0.8848,-0.31,1.34,-2.01,2.76,-13.25,77.17
3.190932,0.4497,0.1382,0.8740,4.76,3.36,-1.59,3.18,-14.13,77.23
3.190932,0.4277,0.1592,0.8892,1.83,0.98,-1.53,3.58,-14.95,77.28
3.251180,0.4316,0.1587,0.8784,2.99,0.37,-0.06,3.94,-15.75,77.33
3.251180,0.4346,0.1567,0.8862,3.97,1.89,1.04,4.33,-16.47,77.40
3.280088,0.4399,0.1543,0.8706,6.23,3.48,3.05,4.71,-17.11,77.51
3.280088,0.4497,0.1421,0.8730,3.17,3.23,2.75,5.06,-17.68,77.63
3.310809,0.4600,0.1343,0.8857,2.75,2.32,1.71,5.35,-18.22,77.73
3.310809,0.4551,0.1377,0.8901,2.87,1.89,0.24,5.63,-18.72,77.81
3.370905,0.4517,0.1406,0.8853,2.38,0.00,-0.73,5.88,-19.21,77.83
3.370905,0.4453,0.1479,0.8716,6.04,1.95,-0.12,6.16,-19.65,77.87
3.400036,0.4336,0.1626,0.8770,7.02,1.77,0.31,6.45,-20.03,77.91
3.400036,0.4302,0.1641,0.8809,9.09,1.28,1.16,6.77,-20.39,77.96
3.430807,0.4365,0.1597,0.8921,12.21,0.06,1.40,7.11,-20.73,78.02
3.430807,0.4404,0.1606,0.8784,12.33,0.24,1.95,7.49,-21.06,78.08
3.490999,0.4478,0.1641,0.8672,8.12,0.61,2.26,7.80,-21.35,78.15
3.490999,0.4521,0.1582,0.8672,5.07,0.37,2.32,8.03,-21.62,78.21
3.520133,0.4497,0.1606,0.8682,5.13,1.34,0.73,8.22,-21.85,78.27
3.520133,0.4429,0.1675,0.8794,2.56,0.37,-0.18,8.38,-22.07,78.29
3.551542,0.4414,0.1724,0.8745,0.06,0.00,-0.79,-1.46,0.78,-0.01
3.551542,0.4321,0.1768,0.8687,-3.66,-1.46,-1.16,-1.50,0.76,-0.03
3.612888,0.4331,0.1772,0.8745,-4.09,-1.22,-0.12,-1.59,0.71,-0.04
3.612888,0.4214,0.1860,0.8716,-8.00,-5.07,0.37,-1.69,0.58,-0.04
3.643158,0.4312,0.1787,0.8765,-5.25,-5.37,2.75,-1.82,0.34,-0.01
3.643158,0.4355,0.1714,0.8809,-8.85,-7.02,2.69,-1.88,0.02,0.05
3.672750,0.4448,0.1626,0.8604,-6.10,-6.41,3.48,-1.93,-0.43,0.12
3.672750,0.4600,0.1445,0.8794,-7.45,-4.58,3.11,-1.96,-0.93,0.18
3.730781,0.4780,0.1299,0.8823,-5.00,-2.56,2.01,-1.92,-1.51,0.23
3.730781,0.4814,0.1226,0.8945,-1.77,-1.46,0.61,-1.77,-2.18,0.25
3.761270,0.4761,0.1309,0.8765,-0.43,-0.43,-1.16,-1.53,-2.94,0.23
3.761270,0.4595,0.1479,0.8770,1.34,-0.55,-1.53,-1.26,-3.82,0.17
3.790032,0.4473,0.1587,0.8657,1.59,1.04,-1.10,-0.91,-4.76,0.12
3.790032,0.4355,0.1665,0.8691,0.24,1.04,-0.43,-0.53,-5.76,0.06
3.851196,0.4404,0.1660,0.8716,1.40,1.59,1.10,-0.14,-6.78,0.03
3.851196,0.4482,0.1548,0.8823,-0.79,0.49,0.79,0.26,-7.86,0.00
3.880082,0.4604,0.1455,0.8818,3.78,1.83,1.95,0.69,-8.94,-0.03
3.880082,0.4673,0.1421,0.8745,4.33,3.11,1.40,1.18,-9.98,-0.06
3.910796,0.4600,0.1460,0.8755,3.72,3.36,0.31,1.68,-11.00,-0.12
3.910796,0.4453,0.1577,0.8716,2.99,2.69,0.79,2.11,-12.00,-0.17
3.970798,0.4463,0.1582,0.8823,3.17,1.95,0.00,2.56,-12.98,-0.26
3.970798,0.4399,0.1646,0.8857,14.40,3.72,1.65,3.10,-13.88,-0.32
4.000053,0.4370,0.1738,0.8682,6.59,2.38,1.28,3.65,-14.72,-0.38
4.000053,0.4404,0.1689,0.8721,4.58,1.40,1.53,4.09,-15.52,-0.43
4.030785,0.4497,0.1621,0.8794,4.46,1.10,1.22,4.48,-16.27,-0.49
4.030785,0.4526,0.1602,0.8765,5.37,2.01,1.40,4.85,-16.96,-0.54
4.090791,0.4512,0.1631,0.8765,5.80,2.20,1.46,5.22,-17.58,-0.58
4.090791,0.4429,0.1670,0.8726,5.13,1.95,1.22,5.60,-18.17,-0.63
4.120048,0.4404,0.1724,0.8770,2.81,0.61,0.37,5.91,-18.70,-0.69
4.120048,0.4395,0.1753,0.8818,3.42,0.06,0.92,6.17,-19.22,-0.74
4.180840,0.4448,0.1748,0.8711,2.32,-0.55,0.37,6.44,-19.70,-0.79
4.180840,0.4478,0.1704,0.8657,-0.73,-1.10,-0.37,6.65,-20.14,-0.86
4.209991,0.4463,0.1714,0.8716,-2.01,-1.65,-0.85,6.76,-20.53,-0.93
4.209991,0.4448,0.1719,0.8774,-3.78,-2.32,-1.22,6.88,-20.93,-1.02
4.240806,0.4473,0.1704,0.8823,-1.16,-1.53,-0.24,6.98,-21.30,-1.09
4.240806,0.4463,0.1689,0.8691,-2.08,-1.16,-0.67,7.10,-21.64,-1.15
4.300920,0.4443,0.1729,0.8740,-0.18,-0.73,0.12,7.20,-21.93,-1.22
4.300920,0.4468,0.1685,0.8687,-2.38,-0.98,-0.49,7.33,-22.19,-1.27
4.330063,0.4482,0.1694,0.8750,-2.44,-1.59,-0.18,7.40,-22.43,-1.32
4.330063,0.4526,0.1626,0.8760,-2.62,-0.92,-0.24,7.43,-22.66,-1.36
4.360886,0.4551,0.1621,0.8774,2.93,1.10,0.73,7.53,-22.86,-1.40
4.360886,0.4551,0.1621,0.8765,2.20,2.08,0.00,7.65,-23.02,-1.41
4.420862,0.4463,0.1714,0.8716,2.26,1.34,-0.37,7.80,-23.23,-1.46
4.420862,0.4395,0.1738,0.8706,2.44,2.50,0.49,7.91,-23.31,-1.47
4.451089,0.4380,0.1763,0.8716,2.20,2.44,0.55,8.03,-23.39,-1.47
4.451089,0.4399,0.1753,0.8774,1.22,1.34,0.85,8.11,-23.48,-1.47
4.480211,0.4453,0.1655,0.8774,0.06,0.67,0.31,8.18,-23.57,-1.48
4.480211,0.4502,0.1650,0.8774,1.95,1.04,0.37,8.26,-23.63,-1.49
4.540930,0.4492,0.1675,0.8794,2.99,0.92,-0.12,8.38,-23.76,-1.51
4.540930,0.4497,0.1699,0.8716,3.30,0.73,-0.18,8.50,-23.85,-1.53
4.570096,0.4419,0.1738,0.8711,2.01,0.67,-0.43,8.60,-23.92,-1.55
4.570096,0.4360,0.1802,0.8716,0.61,0.00,-0.24,8.68,-24.00,-1.58
4.600857,0.4360,0.1792,0.8779,0.55,0.00,0.18,8.75,-24.07,-1.59
4.600857,0.4404,0.1772,0.8833,2.32,-1.28,0.31,8.81,-24.16,-1.60
4.660938,0.4468,0.1738,0.8662,0.06,-0.98,0.43,8.90,-24.25,-1.61
4.660938,0.4512,0.1694,0.8706,-0.55,-0.67,0.00,8.93,-24.33,-1.63
4.690120,0.4521,0.1689,0.8726,-0.79,-0.67,-0.37,8.95,-24.42,-1.65
4.690120,0.4473,0.1704,0.8813,-0.85,-0.24,-0.55,8.97,-24.48,-1.68
4.720839,0.4448,0.1763,0.8735,0.06,0.49,-0.31,9.00,-24.52,-1.69
4.720839,0.4390,0.1792,0.8696,-1.40,-0.49,-0.55,9.03,-24.57,-1.71
4.780893,0.4404,0.1787,0.8730,-0.12,0.00,0.24,9.03,-24.63,-1.73
4.780893,0.4443,0.1753,0.8735,-1.71,-0.43,0.00,9.05,-24.68,-1.74
4.810108,0.4492,0.1709,0.8809,-0.24,-0.24,0.55,9.04,-24.73,-1.75
4.810108,0.4526,0.1665,0.8726,-0.79,0.43,0.00,9.06,-24.77,-1.75
4.840980,0.4507,0.1680,0.8726,-0.55,-0.06,-0.55,9.08,-24.81,-1.76
4.840980,0.4448,0.1699,0.8774,-1.22,-0.24,-0.79,9.09,-24.85,-1.79
4.901378,0.4468,0.1729,0.8799,0.18,-0.73,-0.73,9.11,-24.89,-1.82
4.901378,0.4458,0.1714,0.8804,-0.37,-0.55,-0.85,9.13,-24.93,-1.85
4.930599,0.4438,0.1748,0.8652,0.37,-0.06,-0.61,9.17,-24.97,-1.87
4.930599,0.4443,0.1758,0.8647,-0.24,0.37,-0.37,9.18,-24.99,-1.88
4.960031,0.4429,0.1738,0.8794,-1.04,0.37,-0.31,9.19,-25.00,-1.90
4.960031,0.4448,0.1724,0.8828,-0.61,0.55,-0.18,9.20,-25.03,-1.91
5.020854,0.4458,0.1714,0.8838,1.10,0.49,0.24,9.21,-25.04,-1.91
5.020854,0.4463,0.1704,0.8691,0.61,0.18,-0.06,9.24,-25.06,-1.91
5.050355,0.4463,0.1704,0.8696,-0.12,-0.49,-0.37,9.26,-25.09,-1.92
5.050355,0.4473,0.1733,0.8726,-0.67,-0.55,-0.67,9.28,-25.12,-1.94
5.080791,0.4438,0.1738,0.8774,-0.92,-0.43,-0.61,9.27,-25.15,-1.97
5.080791,0.4434,0.1748,0.8662,-1.10,-0.24,-0.55,9.28,-25.17,-1.98
5.140908,0.4395,0.1777,0.8657,-1.95,-0.24,-0.37,9.26,-25.19,-2.00
5.140908,0.4419,0.1748,0.8726,-1.95,0.12,-0.12,9.23,-25.21,-2.01
5.170073,0.4448,0.1724,0.8838,-0.67,0.18,0.18,9.21,-25.22,-2.01
5.170073,0.4468,0.1680,0.8809,-0.43,0.06,0.24,9.21,-25.24,-2.01
5.200804,0.4512,0.1636,0.8809,1.53,0.73,0.55,9.23,-25.25,-2.00
5.200804,0.4512,0.1680,0.8740,1.10,0.49,0.00,9.45,-25.55,-2.08
5.261017,0.4482,0.1680,0.8794,1.83,0.61,-0.06,9.48,-25.59,-2.09
5.261017,0.4448,0.1733,0.8750,0.06,-0.55,-0.12,9.49,-25.61,-2.10
5.290144,0.4414,0.1768,0.8701,-0.61,-1.40,0.00,9.49,-25.61,-2.10
5.290144,0.4443,0.1753,0.8677,-0.92,-0.79,0.73,9.50,-25.62,-2.10
5.320858,0.4478,0.1699,0.8706,-1.10,0.00,0.92,9.50,-25.63,-2.10
5.320858,0.4507,0.1675,0.8813,0.24,0.24,0.31,9.51,-25.63,-2.11
5.380235,0.4453,0.1709,0.8843,2.69,-0.73,-0.06,9.53,-25.64,-2.11
5.380235,0.4399,0.1768,0.8691,-2.20,-2.69,-0.18,9.52,-25.68,-2.12
5.410914,0.4434,0.1738,0.8667,-2.62,-2.81,0.31,9.47,-25.74,-2.14
5.410914,0.4458,0.1685,0.8735,-2.99,-1.22,0.18,9.42,-25.77,-2.14
5.440092,0.4468,0.1714,0.8818,-2.62,-2.01,0.31,9.36,-25.81,-2.14
5.440092,0.4580,0.1592,0.8784,-1.28,-1.40,0.37,9.32,-25.85,-2.14
5.501000,0.4639,0.1558,0.8696,0.43,-0.06,-0.49,9.32,-25.86,-2.15
5.501000,0.4546,0.1641,0.8735,0.06,0.06,-1.34,9.34,-25.86,-2.17
5.530093,0.4463,0.1699,0.8789,0.24,-0.18,-0.92,9.35,-25.85,-2.20
5.530093,0.4438,0.1714,0.8804,1.28,-0.18,-0.43,9.37,-25.86,-2.21
5.591050,0.4458,0.1743,0.8696,2.75,-0.18,-0.18,9.35,-25.89,-2.38
5.591050,0.4468,0.1719,0.8735,3.78,0.92,0.37,9.34,-25.92,-2.54
5.620242,0.4507,0.1689,0.8750,8.30,1.40,0.67,9.39,-25.94,-2.69
5.620242,0.4512,0.1724,0.8750,5.07,0.55,0.06,9.44,-25.97,-2.85
5.651137,0.4517,0.1729,0.8823,8.36,0.37,0.55,9.50,-26.00,-3.00
5.651137,0.4497,0.1758,0.8711,6.23,-0.37,-0.06,9.60,-26.04,-3.16
5.710927,0.4478,0.1890,0.8696,10.50,-2.50,-0.12,9.67,-26.09,-3.32
5.710927,0.4487,0.1914,0.8521,8.48,0.06,0.00,9.87,-26.16,-3.48
5.740059,0.4482,0.1890,0.8662,2.08,0.12,-0.12,9.88,-26.19,-3.64
5.740059,0.4517,0.1802,0.8662,2.01,0.55,0.00,9.86,-26.22,-3.78
5.770788,0.4512,0.1851,0.8721,1.22,0.00,-0.43,9.83,-26.25,-3.96
5.770788,0.4531,0.1846,0.8730,-0.18,-0.12,-0.67,9.79,-26.28,-4.13
5.830848,0.4546,0.1816,0.8716,1.34,0.37,-0.31,9.74,-26.31,-4.30
5.830848,0.4551,0.1807,0.8657,2.32,1.28,-0.31,9.73,-26.32,-4.46
5.860103,0.4507,0.1880,0.8652,2.20,1.16,-0.73,9.73,-26.32,-4.62
5.860103,0.4434,0.1943,0.8726,1.22,0.67,-0.67,9.72,-26.34,-4.79
5.890955,0.4448,0.1914,0.8691,0.61,0.73,-0.49,9.68,-26.35,-4.95
5.890955,0.4443,0.1948,0.8711,1.46,0.18,0.00,9.64,-26.38,-5.12
5.950604,0.4468,0.1895,0.8657,0.18,0.37,-0.18,9.62,-26.39,-5.27
5.950604,0.4478,0.1890,0.8677,-0.31,-0.18,-0.24,9.57,-26.42,-5.43
5.980391,0.4507,0.1890,0.8706,0.18,-0.12,0.00,9.53,-26.44,-5.58
5.980391,0.4521,0.1870,0.8696,0.12,0.00,-0.49,9.49,-26.47,-5.74
6.048408,0.4492,0.1904,0.8647,-1.65,-0.55,-1.10,9.44,-26.50,-5.91
6.048408,0.4458,0.1929,0.8638,-1.28,-0.43,-0.67,9.37,-26.54,-6.09
6.070103,0.4463,0.1899,0.8706,-2.20,-0.12,-0.55,9.28,-26.58,-6.27
6.070103,0.4463,0.1885,0.8740,-1.59,0.12,-0.24,9.20,-26.61,-6.42
6.100079,0.4482,0.1885,0.8770,0.00,0.06,0.00,9.15,-26.63,-6.58
6.100079,0.4521,0.1831,0.8755,0.18,-0.24,-0.18,9.10,-26.66,-6.73
6.130820,0.4521,0.1860,0.8682,0.06,-0.49,-0.61,9.07,-26.70,-6.90
6.130820,0.4517,0.1865,0.8652,0.37,-0.55,-0.79,9.04,-26.74,-7.07
6.191480,0.4497,0.1890,0.8652,-1.28,-0.31,-1.40,9.00,-26.76,-7.25
6.191480,0.4434,0.1934,0.8687,-1.04,-0.31,-0.92,8.94,-26.80,-7.42
6.220846,0.4404,0.1938,0.8735,-1.65,-0.67,-0.55,8.88,-26.83,-7.59
6.220846,0.4468,0.1909,0.8672,-1.04,-0.79,-0.06,8.81,-26.87,-7.74
6.251412,0.4487,0.1875,0.8662,-1.65,-1.16,0.18,8.74,-26.92,-7.90
6.251412,0.4561,0.1802,0.8745,-0.37,-0.43,0.24,8.68,-26.97,-8.05
6.311126,0.4609,0.1753,0.8770,0.00,-0.06,-0.43,8.64,-27.00,-8.21
6.311126,0.4585,0.1812,0.8691,0.73,0.18,-1.10,8.62,-27.02,-8.37
6.340295,0.4443,0.1919,0.8662,1.22,0.43,-1.22,8.59,-27.04,-8.52
6.340295,0.4360,0.1982,0.8677,0.67,0.18,-0.37,8.57,-27.06,-8.69
6.371082,0.4385,0.1958,0.8716,0.92,0.00,0.49,8.53,-27.08,-8.81
6.371082,0.4463,0.1919,0.8662,-0.31,-0.43,0.43,8.48,-27.11,-8.93
6.431067,0.4531,0.1846,0.8706,-0.85,-0.31,0.06,8.42,-27.14,-9.06
6.431067,0.4575,0.1826,0.8701,-0.37,-0.67,-0.18,8.37,-27.16,-9.19
6.460288,0.4575,0.1807,0.8716,-0.73,-0.37,-0.79,8.33,-27.19,-9.34
6.460288,0.4463,0.1895,0.8706,-0.85,-0.24,-1.16,8.29,-27.21,-9.49
6.491094,0.4414,0.1958,0.8672,-0.79,-0.92,-0.73,8.26,-27.24,-9.65
6.491094,0.4468,0.1909,0.8682,-1.53,-1.16,-0.24,8.21,-27.26,-9.79
