t,ax,ay,az,gx,gy,gz,wx,wy,wz
0.016581,0.1274,0.0596,0.9829,-0.37,-0.12,-0.92,-1.46,0.78,0.00
0.016581,0.1401,0.0483,0.9756,-1.16,0.00,0.73,-1.46,0.78,0.00
0.042037,0.1587,0.0278,0.9814,-2.38,-0.06,0.37,-1.46,0.78,0.00
0.042037,0.1689,0.0088,0.9917,-1.83,0.24,-0.24,-1.46,0.78,0.00
0.072120,0.1709,0.0059,0.9946,-0.06,0.49,-1.46,-1.46,0.78,0.00
0.072120,0.1606,0.0161,0.9893,-0.73,0.98,-2.93,-1.46,0.78,0.00
0.132072,0.1465,0.0342,0.9849,-1.04,0.79,-2.93,-1.46,0.78,0.00
0.132072,0.1426,0.0400,0.9790,-0.49,0.79,-2.01,-1.46,0.78,0.00
0.162280,0.1357,0.0454,0.9839,-0.79,1.22,-1.40,-1.46,0.78,0.00
0.162280,0.1387,0.0425,0.9854,-0.55,0.31,0.24,-1.46,0.78,0.00
0.223362,0.1489,0.0312,0.9854,-1.28,0.06,0.18,-1.46,0.78,0.00
0.223362,0.1533,0.0234,0.9893,-1.65,0.12,-0.24,-1.46,0.78,0.00
0.252074,0.1572,0.0220,0.9854,-2.26,-0.06,-1.10,-1.46,0.78,0.00
0.252074,0.1562,0.0190,0.9912,-0.98,-0.12,-0.98,-1.46,0.78,0.00
0.284431,0.1567,0.0220,0.9834,-0.12,0.00,-0.92,-1.46,0.78,0.00
0.284431,0.1558,0.0264,0.9810,0.37,0.55,-1.04,-1.46,0.78,0.00
0.342210,0.1426,0.0347,0.9883,0.73,1.16,-0.67,-1.46,0.78,0.00
0.342210,0.1353,0.0430,0.9883,0.85,0.37,0.12,-1.46,0.78,0.00
0.372063,0.1406,0.0371,0.9888,0.49,-0.18,0.79,-1.46,0.78,0.00
0.372063,0.1494,0.0312,0.9839,-1.28,-0.43,-0.06,-1.46,0.78,0.00
0.402189,0.1470,0.0288,0.9941,-2.01,-0.73,-0.85,-1.46,0.78,0.00
0.402189,0.1406,0.0386,0.9893,-3.48,-2.01,-1.53,-1.46,0.78,0.00
0.462235,0.1372,0.0591,0.9702,-3.05,-3.78,0.92,-1.46,0.78,0.00
0.462235,0.1699,0.0254,0.9741,-9.77,-5.80,0.00,-1.46,0.78,0.00
0.492205,0.1929,-0.0386,0.9956,-5.68,-5.43,-0.92,-1.46,0.78,0.00
0.492205,0.1968,-0.0317,0.9790,0.06,1.71,-2.32,-1.46,0.78,0.00
0.522202,0.1572,0.0112,0.9907,4.64,4.52,-1.59,-1.46,0.78,0.00
0.522202,0.1401,0.0361,0.9868,4.39,4.33,-1.28,-1.46,0.78,0.00
0.583589,0.1362,0.0425,0.9844,1.95,3.36,-1.04,-1.46,0.78,0.00
0.583589,0.1392,0.0371,0.9922,-2.50,1.53,-1.83,-1.46,0.78,0.00
0.612105,0.1440,0.0166,1.0044,0.49,2.32,-0.49,-1.46,0.78,0.00
0.612105,0.1401,0.0269,0.9927,5.07,2.69,0.37,-1.46,0.78,0.00
0.642139,0.1323,0.0542,0.9707,4.03,3.05,1.04,-1.46,0.78,0.00
0.642139,0.1313,0.0542,0.9683,0.31,1.89,1.65,-1.46,0.78,0.00
0.702208,0.1470,0.0283,0.9883,-0.67,1.34,1.65,-1.46,0.78,0.00
0.702208,0.1514,0.0176,1.0015,1.77,1.65,2.08,-1.46,0.78,0.00
0.732192,0.1504,0.0229,0.9971,-0.12,-0.18,1.04,-1.46,0.78,0.00
0.732192,0.1626,0.0132,0.9902,-4.76,-2.26,-1.65,-1.46,0.78,0.00
0.762434,0.1636,0.0210,0.9775,-4.27,-3.36,-1.59,-1.46,0.78,0.00
0.762434,0.1763,0.0078,0.9790,-6.16,-4.64,-1.77,-1.46,0.78,0.00
0.826554,0.2007,-0.0415,0.9946,-5.74,-3.36,-5.37,-1.46,0.78,0.00
0.826554,0.1548,-0.0054,0.9990,-1.34,1.71,-8.12,-1.46,0.78,0.00
0.852346,0.0986,0.0796,0.9800,4.58,3.78,-3.17,-1.46,0.78,0.00
0.852346,0.0850,0.0972,0.9736,1.46,0.61,0.73,-1.46,0.78,0.00
0.882525,0.1147,0.0542,0.9829,-0.98,-0.18,2.50,-1.46,0.78,0.00
0.882525,0.1289,0.0396,0.9941,0.18,-0.12,4.58,-1.46,0.78,0.00
0.989648,0.1587,0.0088,0.9946,1.53,-1.04,5.13,-1.46,0.78,0.00
0.989648,0.1885,-0.0151,0.9893,2.50,0.37,3.72,-1.46,0.78,0.00
0.989691,0.1982,-0.0254,0.9868,4.46,2.32,1.65,-1.46,0.78,0.00
0.989691,0.1821,-0.0059,0.9883,6.29,3.91,-0.18,-1.46,0.78,0.00
1.002017,0.1455,0.0234,0.9976,2.87,3.17,-3.23,-1.46,0.78,0.00
1.002017,0.1211,0.0547,0.9873,3.23,1.89,-2.26,-1.46,0.78,0.00
1.062100,0.1084,0.0703,0.9854,3.97,0.61,1.04,-1.46,0.78,0.00
1.062100,0.1191,0.0664,0.9775,-1.16,-1.65,1.28,-1.46,0.78,0.00
1.092037,0.1479,0.0312,0.9795,-3.54,-2.20,1.34,-1.46,0.78,0.00
1.092037,0.1729,0.0044,0.9849,-2.32,-1.89,0.55,-1.46,0.78,0.00
1.151885,0.1748,-0.0024,0.9912,0.24,0.31,-0.31,-1.46,0.78,0.00
1.151885,0.1602,0.0122,0.9956,0.98,0.49,-1.95,-1.46,0.78,0.00
1.182553,0.1450,0.0312,0.9922,0.06,-0.06,-2.93,-1.46,0.78,0.00
1.182553,0.1357,0.0430,0.9858,0.00,-0.31,-1.77,-1.46,0.78,0.00
1.211952,0.1348,0.0430,0.9873,-1.89,-0.85,-1.83,-1.46,0.78,0.00
1.211952,0.1387,0.0376,0.9878,-0.98,-0.67,-0.85,-1.46,0.78,0.00
1.242087,0.1450,0.0293,0.9854,-1.10,-0.55,-0.61,-1.46,0.78,0.00
1.242087,0.1528,0.0254,0.9814,-1.28,-0.12,-1.10,-1.46,0.78,0.00
1.302390,0.1499,0.0259,0.9844,-1.53,0.49,-1.22,-1.46,0.78,0.00
1.302390,0.1465,0.0278,0.9907,2.87,0.67,0.98,-1.46,0.78,0.00
1.332445,0.1484,0.0293,0.9902,1.71,0.55,0.31,-1.46,0.78,0.00
1.332445,0.1489,0.0249,0.9893,0.55,0.37,-0.55,-1.46,0.78,0.00
1.362599,0.1504,0.0308,0.9805,1.40,0.24,-0.31,-1.46,0.78,0.00
1.362599,0.1494,0.0283,0.9863,2.26,0.61,0.00,-1.46,0.78,0.00
1.422318,0.1431,0.0264,0.9966,1.83,0.31,-0.31,-1.46,0.78,0.00
1.422318,0.1465,0.0322,0.9868,-0.31,0.00,-1.46,-1.46,0.78,0.00
1.452486,0.1396,0.0430,0.9790,0.18,0.18,-0.92,-1.46,0.78,0.00
1.452486,0.1333,0.0444,0.9839,-3.17,-0.92,-1.83,-1.46,0.78,0.00
1.482756,0.1343,0.0410,0.9878,-4.03,-1.59,-1.65,-1.46,0.78,0.00
1.482756,0.1450,0.0308,0.9897,-2.62,-1.34,-0.37,-1.46,0.78,0.00
1.542354,0.1567,0.0215,0.9878,2.44,-0.61,1.65,-1.46,0.78,0.00
1.542354,0.1606,0.0195,0.9834,0.73,-0.18,0.00,-1.46,0.78,0.00
1.572464,0.1509,0.0288,0.9849,-1.83,-0.24,-1.46,-1.46,0.78,0.00
1.572464,0.1387,0.0371,0.9893,0.43,0.18,-0.06,-1.46,0.78,0.00
1.632272,0.1362,0.0415,0.9883,-0.12,-0.55,0.00,-1.46,0.78,0.00
1.632272,0.1396,0.0405,0.9824,-2.20,-0.92,-0.12,-1.46,0.78,0.00
1.664552,0.1411,0.0347,0.9868,-3.78,-1.22,-0.12,-1.46,0.78,0.00
1.664552,0.1514,0.0244,0.9878,-4.21,-1.71,-0.31,-1.46,0.78,0.00
1.692260,0.1548,0.0132,0.9946,-2.87,-1.46,-0.31,-1.46,0.78,0.00
1.692260,0.1597,0.0146,0.9878,-0.73,-1.22,-0.31,-1.46,0.78,0.00
1.752212,0.1597,0.0181,0.9844,0.12,-0.55,-0.55,-1.46,0.78,0.00
1.752212,0.1519,0.0244,0.9863,-0.61,-0.37,-0.98,-1.46,0.78,0.00
1.786611,0.1514,0.0254,0.9849,0.00,-0.12,-0.61,-1.46,0.78,0.00
1.786611,0.1426,0.0312,0.9927,0.73,0.18,0.06,-1.46,0.78,0.00
1.838238,0.1445,0.0347,0.9829,-1.77,-0.43,-0.49,-1.46,0.78,0.00
1.838238,0.1504,0.0278,0.9819,0.00,-0.31,0.55,-1.46,0.78,0.00
1.871880,0.1597,0.0205,0.9790,2.93,0.79,1.89,-1.46,0.78,0.00
1.871880,0.1519,0.0229,0.9937,2.32,0.73,1.34,-1.46,0.78,0.00
1.903316,0.1533,0.0215,0.9888,-0.61,0.12,-0.73,-1.46,0.78,0.00
1.903316,0.1533,0.0225,0.9863,-1.77,0.06,-1.59,-1.46,0.78,0.00
1.933579,0.1401,0.0352,0.9883,-4.03,-0.24,-2.50,-1.46,0.78,0.00
1.933579,0.1411,0.0415,0.9819,-1.53,-0.98,-0.43,-1.46,0.78,0.00
1.993398,0.1470,0.0278,0.9868,-1.53,-0.92,0.24,-1.46,0.78,0.00
1.993398,0.1504,0.0254,0.9878,-2.08,-1.16,0.06,-1.46,0.78,0.00
2.024464,0.1528,0.0195,0.9922,-1.59,-1.16,0.37,-1.46,0.78,0.00
2.024464,0.1616,0.0103,0.9893,-2.81,-1.53,-0.85,-1.46,0.78,0.00
2.070273,0.1582,0.0098,0.9922,-2.38,-0.98,-1.71,-1.46,0.78,0.00
2.070273,0.1519,0.0215,0.9824,0.73,-0.37,0.00,-1.46,0.78,0.00
2.112296,0.1484,0.0278,0.9819,2.14,-0.06,0.98,-1.46,0.78,0.00
2.112296,0.1499,0.0259,0.9824,0.06,0.06,0.12,-1.46,0.78,0.00
2.142586,0.1548,0.0210,0.9810,0.61,0.43,0.31,-1.46,0.78,0.00
2.142586,0.1567,0.0171,0.9863,0.00,0.31,-0.24,-1.46,0.78,0.00
2.172536,0.1543,0.0186,0.9917,1.04,0.43,-0.06,-1.46,0.78,0.00
2.172536,0.1494,0.0259,0.9863,1.46,0.73,0.06,-1.46,0.78,0.00
2.232803,0.1475,0.0298,0.9834,0.73,0.37,-0.24,-1.46,0.78,0.00
2.232803,0.1436,0.0308,0.9888,-0.49,0.18,-0.43,-1.46,0.78,0.00
2.262501,0.1450,0.0283,0.9902,0.92,0.00,0.73,-1.46,0.78,0.00
2.262501,0.1499,0.0283,0.9824,-0.06,-0.06,0.49,-1.46,0.78,0.00
2.292982,0.1523,0.0244,0.9829,-2.20,-0.31,-0.31,-1.46,0.78,0.00
2.292982,0.1562,0.0176,0.9863,-1.71,0.06,-0.31,-1.46,0.78,0.00
2.353320,0.1572,0.0176,0.9902,-0.12,0.73,0.12,-1.46,0.78,0.00
2.353320,0.1499,0.0205,0.9932,1.77,0.55,0.79,-1.46,0.78,0.00
2.385803,0.1455,0.0278,0.9897,-1.16,-0.79,-0.79,-1.46,0.78,0.00
2.385803,0.1499,0.0273,0.9810,-0.92,-0.73,-0.37,-1.46,0.78,0.00
2.415378,0.1489,0.0264,0.9824,-1.04,-0.37,-0.18,-1.46,0.78,0.00
2.415378,0.1538,0.0229,0.9775,1.10,0.37,1.04,-1.46,0.78,0.00
2.473253,0.1533,0.0244,0.9829,1.89,0.85,1.40,-1.46,0.78,0.00
2.473253,0.1519,0.0210,0.9917,1.04,0.37,1.28,-1.46,0.78,0.00
2.503718,0.1523,0.0166,0.9966,0.73,0.12,0.67,-1.46,0.78,0.00
2.503718,0.1519,0.0200,0.9912,-2.20,-0.37,-1.04,-1.46,0.78,0.00
2.531999,0.1519,0.0176,0.9893,-4.09,-1.16,-1.95,-1.46,0.78,0.00
2.531999,0.1533,0.0234,0.9849,-1.95,-0.61,-0.79,-1.46,0.78,0.00
2.593131,0.1567,0.0186,0.9839,-1.46,-0.55,-0.73,-1.46,0.78,0.00
2.593131,0.1519,0.0254,0.9790,-0.55,0.12,-0.24,-1.46,0.78,0.00
2.623228,0.1484,0.0283,0.9849,-1.95,0.12,-0.24,-1.46,0.78,0.00
2.623228,0.1509,0.0210,0.9868,0.31,0.12,0.67,-1.46,0.78,0.00
2.652406,0.1548,0.0132,0.9932,0.37,-0.18,0.18,-1.46,0.78,0.00
2.652406,0.1577,0.0117,0.9917,0.67,-0.37,-0.12,-1.46,0.78,0.00
2.713987,0.1572,0.0166,0.9893,-1.34,-0.67,-1.46,-1.46,0.78,0.00
2.713987,0.1519,0.0181,0.9902,-3.42,-1.10,-2.69,-1.47,0.78,109.48
2.744233,0.1509,0.0215,0.9854,-4.21,-1.10,-2.81,-1.54,0.75,109.42
2.744233,0.1509,0.0239,0.9780,-0.06,-0.12,-0.37,-1.57,0.73,109.40
2.773758,0.1470,0.0273,0.9858,0.61,-0.37,-0.06,-1.57,0.71,109.40
2.773758,0.1509,0.0259,0.9854,0.24,-0.43,0.24,-1.55,0.66,109.40
2.835409,0.1558,0.0181,0.9834,0.06,0.00,0.67,-1.54,0.60,109.41
2.835409,0.1611,0.0137,0.9810,1.16,0.31,0.61,-1.54,0.51,109.43
2.865108,0.1587,0.0112,0.9878,0.85,0.98,0.18,-1.49,0.39,109.45
2.865108,0.1548,0.0137,0.9912,2.20,1.04,0.12,-1.47,0.25,109.46
2.892599,0.1519,0.0225,0.9844,3.78,1.46,0.85,-1.39,0.07,109.47
2.892599,0.1445,0.0298,0.9849,1.40,0.73,0.00,-1.31,-0.15,109.49
2.952795,0.1475,0.0288,0.9829,-0.37,0.00,-0.31,-1.26,-0.43,109.50
2.952795,0.1494,0.0249,0.9897,-0.98,0.31,-0.18,-1.25,-0.71,109.51
2.982197,0.1538,0.0220,0.9873,0.49,0.43,0.37,-1.20,-1.04,109.52
2.982197,0.1538,0.0176,0.9917,2.56,0.37,0.85,-1.12,-1.39,109.56
3.043062,0.1558,0.0190,0.9854,1.28,0.31,-0.18,-1.04,-1.74,109.58
3.043062,0.1509,0.0249,0.9863,1.28,0.79,0.06,-0.97,-2.09,109.60
3.072389,0.1431,0.0269,0.9932,0.12,0.24,-0.06,-0.90,-2.45,109.62
3.072389,0.1499,0.0225,0.9941,-1.10,-0.92,-0.92,-0.88,-2.80,109.63
3.102914,0.1582,0.0205,0.9834,0.06,-0.31,-0.31,-0.84,-3.17,109.64
3.102914,0.1587,0.0215,0.9785,0.43,0.31,-0.24,-0.79,-3.51,109.66
3.163171,0.1504,0.0254,0.9829,-0.49,0.55,-1.04,-0.74,-3.83,109.66
3.163171,0.1436,0.0298,0.9883,0.98,0.79,-0.31,-0.70,-4.12,109.67
3.193200,0.1421,0.0293,0.9897,3.30,0.92,1.22,-0.62,-4.34,109.70
3.193200,0.1470,0.0303,0.9858,1.89,0.12,0.98,-0.52,-4.59,109.74
3.222370,0.1514,0.0220,0.9883,0.12,0.00,0.24,-0.46,-4.82,109.78
3.222370,0.1558,0.0161,0.9917,-3.48,-0.43,-1.77,-0.44,-5.05,109.78
3.283337,0.1572,0.0166,0.9868,-3.05,-0.43,-2.38,-0.48,-5.26,109.75
3.283337,0.1523,0.0254,0.9854,-0.85,0.06,-1.22,-0.49,-5.46,109.73
3.313728,0.1494,0.0273,0.9834,1.10,0.61,0.00,-0.46,-5.62,109.74
3.313728,0.1465,0.0303,0.9829,1.65,0.92,0.24,-0.40,-5.77,109.75
3.536581,0.1396,0.0327,0.9907,-0.61,0.24,-0.24,-0.36,-5.91,109.77
3.536581,0.1416,0.0273,0.9937,-4.58,-0.98,-1.95,-0.38,-6.05,109.75
3.536618,0.1509,0.0146,0.9917,-5.74,-1.53,-2.81,-0.47,-6.20,109.71
3.536618,0.1602,0.0142,0.9844,-3.42,-0.43,-1.83,-0.53,-6.34,109.68
# luecke 97.003890-103.260258
103.246462,0.2383,0.6743,0.7202,4.03,-0.73,-3.85,-1.46,0.78,0.00
103.246462,0.2207,0.6294,0.7241,-6.35,3.48,-8.12,-1.46,0.78,0.00
103.276762,0.2280,0.6611,0.7290,-14.83,5.55,-8.36,-1.46,0.78,0.00
103.276762,0.2427,0.6709,0.7197,-16.42,3.72,-10.07,-1.46,0.78,0.00
103.335741,0.2456,0.6621,0.7153,-11.23,1.34,-9.52,-1.46,0.78,0.00
103.335741,0.2485,0.6460,0.7202,-9.77,2.08,-11.29,-1.46,0.78,0.00
103.364934,0.2363,0.6348,0.7324,-9.03,2.32,-11.96,-1.46,0.78,0.00
103.364934,0.2139,0.6108,0.7393,-16.72,4.46,-15.69,-1.46,0.78,0.00
103.395774,0.2139,0.6089,0.7358,-28.08,7.63,-17.64,-1.46,0.78,0.00
103.395774,0.2271,0.6470,0.7197,-30.76,7.26,-20.63,-1.46,0.78,0.00
103.455776,0.2095,0.6294,0.7153,-23.68,2.32,-17.52,-1.46,0.78,0.00
103.455776,0.1836,0.6250,0.7275,-21.48,-0.61,-13.61,-1.46,0.78,0.00
103.487688,0.1797,0.6304,0.7314,-19.17,-2.62,-12.76,-1.46,0.78,0.00
103.487688,0.1499,0.6118,0.7598,-16.42,-4.52,-11.78,-1.46,0.78,0.00
103.517665,0.1299,0.5942,0.7832,-12.76,-5.86,-7.51,-1.46,0.78,0.00
103.517665,0.1167,0.5933,0.8091,-8.06,-6.16,-2.56,-1.46,0.78,0.00
103.575737,0.1240,0.6089,0.8110,-2.56,-6.47,-0.24,-1.46,0.78,0.00
103.575737,0.1138,0.5972,0.8125,-0.43,-6.04,1.16,-1.46,0.78,0.00
103.604912,0.1143,0.5977,0.8076,-0.31,-4.88,3.05,-1.46,0.78,0.00
103.604912,0.1255,0.5952,0.7891,-5.80,-1.77,2.44,-1.46,0.78,0.00
103.635653,0.1577,0.6001,0.7642,-8.00,-1.53,3.30,-1.46,0.78,0.00
103.635653,0.1768,0.6313,0.7651,-5.13,-2.99,2.69,-1.46,0.78,0.00
103.697670,0.1890,0.6343,0.7646,0.18,-5.37,3.05,-1.46,0.78,0.00
103.697670,0.2007,0.6309,0.7544,5.92,-7.26,4.76,-1.46,0.78,0.00
103.727745,0.2109,0.6436,0.7505,8.42,-9.64,3.48,-1.46,0.78,0.00
103.727745,0.1851,0.6260,0.7769,7.20,-8.97,0.43,-1.46,0.78,0.00
103.757625,0.1787,0.6104,0.7773,-0.37,-5.37,-2.99,-1.46,0.78,0.00
103.757625,0.1826,0.6128,0.7817,-3.54,-4.76,-2.75,-1.46,0.78,0.00
103.815635,0.1987,0.6245,0.7744,-0.85,-5.43,-3.30,-1.46,0.78,0.00
103.815635,0.1885,0.6191,0.7842,5.62,-8.24,-0.85,-1.46,0.78,0.00
103.845179,0.1768,0.6230,0.7964,9.46,-7.20,0.67,-1.46,0.78,0.00
103.845179,0.1841,0.6221,0.7832,9.83,-6.65,1.83,-1.46,0.78,0.00
103.875599,0.1890,0.6240,0.7759,10.68,-6.35,3.05,-1.46,0.78,0.00
103.875599,0.1997,0.6279,0.7578,11.29,-8.24,3.97,-1.46,0.78,0.00
103.935687,0.2017,0.6284,0.7554,18.25,-12.39,7.14,-1.46,0.78,0.00
103.935687,0.1953,0.6313,0.7593,21.48,-14.28,8.24,-1.46,0.78,0.00
# luecke 105.715343-108.027882
108.016364,0.1289,0.3643,0.9297,37.48,5.00,0.06,-1.46,0.78,0.00
108.016364,0.1855,0.4248,0.8530,13.18,-0.24,-3.11,-1.46,0.78,0.00
108.047718,0.1782,0.3911,0.8003,-22.22,-11.72,-9.70,-1.46,0.78,0.00
108.047718,0.1587,0.3315,0.8418,-32.53,-25.09,-10.07,-1.46,0.78,0.00
108.105831,0.1416,0.3433,0.9297,-39.92,-40.04,-5.37,-1.46,0.78,0.00
108.105831,0.1528,0.3979,0.9570,-15.62,-33.63,18.74,-1.46,0.78,0.00
108.134895,0.2280,0.3569,0.9673,-25.94,-45.90,19.96,-1.46,0.78,0.00
108.134895,0.2119,0.3477,0.9507,33.63,-21.12,6.77,-1.46,0.78,0.00
108.165731,0.1494,0.2905,0.9312,21.24,-50.42,20.32,-1.46,0.78,0.00
108.165731,0.1152,0.3501,0.9307,-11.05,-63.90,80.81,-1.46,0.78,0.00
108.225769,0.2217,0.2749,0.9644,-43.82,-69.27,64.03,-1.46,0.78,0.00
108.225769,0.2529,0.2373,0.8950,-94.30,-94.97,86.24,-1.46,0.78,0.00
108.257824,0.4219,0.1484,0.7993,-49.68,-107.24,31.68,-1.46,0.78,0.00
108.257824,0.4653,0.2046,0.7617,6.77,-89.78,2.26,-1.46,0.78,0.00
108.288104,0.4507,0.2749,0.7827,-62.01,-56.15,-50.48,-1.46,0.78,0.00
108.288104,0.4277,0.1699,0.9683,-126.40,-53.89,-80.99,-1.46,0.78,0.00
108.346159,0.3979,0.0991,0.9819,-89.29,-49.26,-83.68,-1.46,0.78,0.00
108.346159,0.4268,0.1704,0.9360,-41.50,-32.17,-65.31,-1.46,0.78,0.00
108.375040,0.4219,0.1802,0.8823,-60.79,-18.92,-47.67,-1.46,0.78,0.00
108.375040,0.4229,0.1064,0.8218,-61.71,-22.34,-44.74,-1.46,0.78,0.00
108.405779,0.3750,0.0205,0.7197,-31.68,-44.92,-62.38,-1.46,0.78,0.00
108.405779,0.3779,0.0454,0.8838,-26.37,-51.64,-66.35,-1.46,0.78,0.00
108.467804,0.3887,0.0986,0.7417,-41.26,-37.11,-55.79,-1.46,0.78,0.00
108.467804,0.3911,0.0957,0.7158,-43.09,-41.93,-21.79,-1.46,0.78,0.00
108.496047,0.4448,0.0684,0.7876,-7.26,-46.20,0.92,-1.46,0.78,0.00
108.496047,0.5298,0.2129,0.8711,31.43,-33.45,18.68,-1.46,0.78,0.00
108.524982,0.5298,0.1606,0.8882,-0.92,-21.91,35.52,-1.46,0.78,0.00
108.524982,0.5024,0.1665,0.8193,-46.08,-1.95,64.39,-1.46,0.78,0.00
108.585767,0.5649,0.3403,0.6958,-5.74,-3.42,66.53,-1.46,0.78,0.00
108.585767,0.5469,0.1216,0.8667,7.26,7.20,78.25,-1.46,0.78,0.00
108.615220,0.5513,0.1616,0.6191,-8.30,4.94,87.28,-1.46,0.78,0.00
108.615220,0.5430,0.1646,0.6953,34.97,-16.48,78.25,-1.46,0.78,0.00
108.644842,0.5674,0.1323,0.7173,39.55,-26.43,71.47,-1.46,0.78,0.00
108.644842,0.6084,0.1235,0.8096,50.72,-34.85,58.41,-1.46,0.78,0.00
108.705719,0.6377,0.1548,1.0972,61.83,34.30,53.65,-1.46,0.78,0.00
108.705719,0.5732,0.1294,0.9229,41.26,72.02,59.14,-1.46,0.78,0.00
108.735036,0.5669,0.1279,1.0742,15.81,103.33,59.94,-1.46,0.78,0.00
108.735036,0.5273,0.1377,1.0737,18.01,278.75,50.72,-1.46,0.78,0.00
108.765712,0.4443,0.1855,0.9604,71.78,232.12,50.96,-1.46,0.78,0.00
108.765712,0.3882,0.1821,1.0698,54.38,226.62,43.09,-1.46,0.78,0.00
108.825637,0.3540,0.2422,0.8936,-18.98,43.52,40.34,-1.46,0.78,0.00
108.825637,0.3652,0.1943,0.9653,-23.01,17.46,36.38,-1.46,0.78,0.00
108.855004,0.3560,0.1392,0.9692,-12.57,-3.85,21.67,-1.46,0.78,0.00
108.855004,0.2847,0.1211,0.9731,1.04,-2.08,-2.32,-1.46,0.78,0.00
108.885710,0.2637,0.0796,1.0024,-3.42,-12.08,-8.24,-1.46,0.78,0.00
108.885710,0.2539,0.0483,0.9673,-2.38,-14.47,-5.37,-1.46,0.78,0.00
108.945629,0.2407,0.0645,0.9878,-2.81,2.26,-4.33,-1.46,0.78,0.00
108.945629,0.2461,0.0728,0.9492,-0.24,13.31,-6.41,-1.46,0.78,0.00
108.974824,0.2563,0.1191,0.9780,3.05,12.33,-9.70,-1.46,0.78,0.00
108.974824,0.1587,0.1660,0.6377,-118.71,5.00,7.14,-1.46,0.78,0.00
109.005654,0.3501,0.0029,1.3491,-198.97,-104.13,-5.74,-1.46,0.78,0.00
109.005654,0.3105,0.0107,0.9409,5.25,12.21,-17.94,-1.46,0.78,0.00
109.065780,0.1704,-0.0352,0.9697,-8.97,5.98,-10.13,-1.46,0.78,0.00
109.065780,0.1904,0.0063,1.0088,-25.63,4.27,-12.76,-1.46,0.78,0.00
109.095051,0.2061,0.0098,0.9453,-25.88,16.05,-12.88,-1.46,0.78,0.00
109.095051,0.1812,-0.0254,0.9663,-13.85,14.53,-1.22,-1.46,0.78,0.00
109.125702,0.1885,-0.0278,1.0078,-8.30,14.65,-0.61,-1.46,0.78,0.00
109.125702,0.2002,-0.0327,1.0073,-11.96,16.60,2.62,-1.46,0.78,0.00
109.185638,0.2144,-0.0659,1.0020,-9.52,25.39,11.17,-1.46,0.78,0.00
109.185638,0.2236,-0.0659,0.9912,-10.38,37.17,10.68,-1.46,0.78,0.00
109.215167,0.2490,-0.0513,0.9507,-4.15,27.16,10.44,-1.46,0.78,0.00
109.215167,0.2676,-0.0249,0.9126,12.39,31.19,13.55,-1.46,0.78,0.00
109.245601,0.2876,-0.0752,0.9541,17.64,34.73,13.12,-1.46,0.78,0.00
109.245601,0.2539,-0.0586,0.9932,10.25,34.42,27.22,-1.46,0.78,0.00
109.305735,0.2251,-0.0537,1.0156,8.36,24.78,22.95,-1.46,0.78,0.00
109.305735,0.2427,0.0015,1.0000,-3.36,3.66,10.86,-1.46,0.78,0.00
109.335077,0.2622,0.0454,0.9478,-14.83,-13.92,0.79,-1.46,0.78,0.00
109.335077,0.2358,-0.0918,1.0342,14.89,11.72,-1.16,-1.46,0.78,0.00
109.395758,0.1489,-0.0122,1.0229,36.01,28.44,1.53,-1.46,0.78,0.00
109.395758,0.1113,0.0229,0.9604,-26.31,-29.85,-1.40,-1.46,0.78,0.00
109.424896,0.1851,-0.0532,1.0259,-34.67,-34.73,-2.14,-1.46,0.78,0.00
109.424896,0.1743,-0.0522,1.0864,21.42,18.62,-1.16,-1.46,0.78,0.00
109.455612,0.0923,0.0454,0.9800,-34.36,-31.07,-4.46,-1.46,0.78,0.00
109.455612,0.2246,-0.1157,1.0293,-25.09,-21.61,-0.79,-1.46,0.78,0.00
109.545953,0.1289,-0.0303,0.6763,4.27,0.18,12.21,-1.46,0.78,0.00
109.545953,0.1934,-0.0513,0.9434,1.46,13.24,24.29,-1.46,0.78,0.00
109.548149,0.2153,-0.0576,1.0962,-2.93,4.52,21.42,-1.46,0.78,0.00
109.548149,0.1631,-0.0444,1.0010,-3.11,-2.26,14.71,-1.46,0.78,0.00
109.577928,0.1533,-0.0532,0.9478,-4.58,-0.85,24.05,-1.46,0.78,0.00
109.577928,0.1646,-0.0542,0.9727,-1.16,4.03,34.00,-1.46,0.78,0.00
109.635653,0.1631,-0.0562,0.9863,-2.93,3.05,39.98,-1.46,0.78,0.00
109.635653,0.1753,-0.0654,0.9829,-1.34,4.09,42.36,-1.46,0.78,0.00
109.664844,0.1782,-0.0679,0.9897,-0.49,3.97,48.65,-1.46,0.78,0.00
109.664844,0.1885,-0.0688,0.9834,-0.37,2.38,56.88,-1.46,0.78,0.00
109.695648,0.1875,-0.0723,0.9814,0.92,2.75,61.04,-1.46,0.78,0.00
109.695648,0.1680,-0.0723,0.9819,0.98,2.38,69.09,-1.46,0.78,0.00
109.755768,0.1646,-0.0767,0.9829,0.31,1.22,79.10,-1.46,0.78,0.00
109.755768,0.1538,-0.0815,0.9800,3.23,2.87,86.18,-1.46,0.78,0.00
109.784903,0.1597,-0.0913,0.9854,-2.01,0.24,88.50,-1.46,0.78,0.00
109.784903,0.1719,-0.0981,0.9829,-1.71,0.31,66.10,-1.46,0.78,0.00
109.815889,0.1899,-0.1069,0.9849,-0.24,0.79,19.41,-1.46,0.78,0.00
109.815889,0.1836,-0.1064,0.9844,-0.06,0.06,1.22,-1.46,0.78,0.00
109.875630,0.1523,-0.0972,0.9849,-0.18,-0.18,-0.12,-1.46,0.78,0.00
109.875630,0.1519,-0.0972,0.9839,-0.18,-0.31,-0.24,-1.46,0.78,0.00
109.904830,0.1519,-0.0967,0.9849,-0.24,-0.31,-0.18,-1.46,0.78,0.00
109.904830,0.1519,-0.0967,0.9834,-0.18,-0.18,-0.24,-1.46,0.78,0.00
109.935595,0.1528,-0.0972,0.9849,-0.12,-0.24,-0.18,-1.46,0.78,0.00
109.935595,0.1523,-0.0972,0.9834,-0.12,-0.24,-0.18,-1.46,0.78,0.00
109.997661,0.1519,-0.0972,0.9839,-0.12,-0.18,-0.18,-1.46,0.78,0.00
109.997661,0.1528,-0.0972,0.9839,-0.12,-0.18,-0.18,-1.46,0.78,0.00
110.028130,0.1523,-0.0972,0.9839,-0.06,-0.12,-0.24,-1.46,0.78,0.00
110.028130,0.1523,-0.0977,0.9839,-0.12,-0.12,-0.24,-1.46,0.78,0.00
110.057795,0.1523,-0.0972,0.9839,-0.06,-0.18,-0.18,-1.46,0.78,0.00
110.057795,0.1523,-0.0977,0.9844,-0.12,-0.18,-0.18,-1.46,0.78,0.00
110.115927,0.1533,-0.0972,0.9844,-0.18,-0.18,-0.18,-1.46,0.78,0.00
110.115927,0.1538,-0.0972,0.9849,-0.18,-0.12,-0.18,-1.46,0.78,0.00
110.144980,0.1528,-0.0972,0.9839,-0.12,-0.12,-0.18,-1.46,0.78,0.00
110.144980,0.1528,-0.0977,0.9834,-0.06,-0.12,-0.12,-1.46,0.78,0.00
110.175607,0.1519,-0.0977,0.9844,-0.12,-0.12,-0.18,-1.46,0.78,0.00
110.175607,0.1533,-0.0972,0.9834,-0.12,-0.12,-0.12,-1.46,0.78,0.00
110.235628,0.1533,-0.0981,0.9834,-0.18,-0.12,-0.12,-1.46,0.78,0.00
110.235628,0.1533,-0.0977,0.9839,-0.06,-0.06,-0.18,-1.46,0.78,0.00
110.264897,0.1523,-0.0977,0.9844,-0.06,-0.12,-0.18,-1.46,0.78,0.00
110.264897,0.1538,-0.0977,0.9834,-0.06,-0.18,-0.18,-1.46,0.78,0.00
110.294882,0.1533,-0.0977,0.9834,-0.06,-0.06,-0.18,-1.46,0.78,0.00
110.294882,0.1538,-0.0967,0.9839,-0.06,-0.06,-0.18,-1.46,0.78,0.00
110.355638,0.1528,-0.0986,0.9834,-0.06,-0.06,-0.18,-1.46,0.78,0.00
110.355638,0.1538,-0.0977,0.9829,-0.06,-0.06,-0.18,-1.46,0.78,0.00
110.384844,0.1533,-0.0972,0.9829,-0.06,-0.06,-0.18,-1.46,0.78,0.00
110.384844,0.1543,-0.0972,0.9849,0.00,-0.06,-0.18,-1.46,0.78,0.00
110.415902,0.1533,-0.0977,0.9849,-0.06,-0.06,-0.24,-1.46,0.78,0.00
110.415902,0.1523,-0.0977,0.9844,-0.06,-0.12,-0.24,-1.46,0.78,0.00
110.475647,0.1533,-0.0977,0.9839,0.00,-0.06,-0.18,-1.46,0.78,0.00
110.475647,0.1538,-0.0981,0.9844,-0.06,-0.06,-0.18,-7.12,-8.03,0.51
110.504926,0.1538,-0.0977,0.9839,-0.06,-0.12,-0.18,-7.12,-8.04,0.50
110.504926,0.1538,-0.0977,0.9829,-0.12,-0.06,-0.18,-7.13,-8.04,0.50
110.535932,0.1538,-0.0972,0.9824,-0.06,0.00,-0.18,-7.13,-8.04,0.49
110.535932,0.1543,-0.0977,0.9829,0.00,-0.06,-0.18,-7.13,-8.04,0.49
110.595656,0.1538,-0.0977,0.9824,-0.06,0.00,-0.24,-7.13,-8.04,0.48
110.595656,0.1533,-0.0981,0.9839,-0.06,-0.06,-0.18,-7.13,-8.04,0.48
110.624847,0.1538,-0.0981,0.9834,-0.06,-0.06,-0.12,-7.13,-8.05,0.48
110.624847,0.1543,-0.0986,0.9834,-0.06,-0.06,-0.18,-7.14,-8.05,0.47
110.685612,0.1538,-0.0981,0.9829,-0.06,0.00,-0.18,-7.14,-8.05,0.47
110.685612,0.1543,-0.0986,0.9824,-0.06,-0.06,-0.24,-7.14,-8.05,0.47
110.715136,0.1543,-0.0981,0.9824,-0.12,0.00,-0.18,-7.14,-8.06,0.46
110.715136,0.1543,-0.0986,0.9834,-0.06,-0.06,-0.18,-7.15,-8.06,0.46
110.745590,0.1553,-0.0986,0.9834,-0.06,0.00,-0.18,-7.15,-8.06,0.45
110.745590,0.1538,-0.0981,0.9829,-0.06,0.00,-0.18,-7.15,-8.07,0.45
110.805749,0.1533,-0.0972,0.9834,-0.06,-0.06,-0.12,-7.15,-8.07,0.44
110.805749,0.1533,-0.0981,0.9829,0.00,0.00,-0.24,-7.15,-8.07,0.44
110.837957,0.1528,-0.0981,0.9839,0.00,0.00,-0.12,-7.15,-8.07,0.43
110.837957,0.1543,-0.0981,0.9844,-0.06,0.00,-0.18,-7.16,-8.07,0.43
110.867753,0.1538,-0.0981,0.9834,-0.12,0.00,-0.18,-8.32,-4.95,-0.03
110.867753,0.1548,-0.0972,0.9844,0.00,0.00,-0.06,-7.99,-5.74,-0.38
110.925643,0.1538,-0.0986,0.9829,-0.06,0.00,-0.12,-7.62,-6.73,-0.72
110.925643,0.1543,-0.0986,0.9829,-0.06,0.00,-0.18,-7.47,-7.21,-1.05
110.954847,0.1548,-0.0977,0.9829,-0.06,0.00,-0.12,-7.40,-7.46,-1.37
110.954847,0.1538,-0.0986,0.9829,-0.06,0.00,-0.12,-7.35,-7.60,-1.66
110.985617,0.1548,-0.0986,0.9839,0.00,0.00,-0.18,-7.32,-7.68,-1.93
110.985617,0.1538,-0.0981,0.9824,-0.12,0.00,-0.12,-7.31,-7.74,-2.19
111.045809,0.1538,-0.0991,0.9834,0.00,0.06,-0.18,-7.29,-7.78,-2.42
111.045809,0.1533,-0.0991,0.9834,0.00,0.00,-0.18,-7.28,-7.81,-2.64
111.074907,0.1548,-0.0991,0.9819,-0.06,0.00,-0.24,-7.28,-7.83,-2.85
111.074907,0.1543,-0.0981,0.9834,-0.06,0.00,-0.18,-7.28,-7.85,-3.05
111.105564,0.1553,-0.0981,0.9844,-0.06,-0.06,-0.12,-7.27,-7.87,-3.24
111.105564,0.1538,-0.0981,0.9839,0.00,0.00,-0.12,-7.27,-7.88,-3.41
111.165784,0.1548,-0.0986,0.9834,0.00,0.00,-0.18,-7.27,-7.90,-3.58
111.165784,0.1548,-0.0981,0.9829,0.00,0.12,-0.12,-7.26,-7.91,-3.74
111.195000,0.0073,-0.0659,0.2866,5.07,77.09,6.29,-7.29,-7.16,-3.76
111.195000,0.2046,-0.0518,1.3740,-6.35,46.75,10.25,-6.27,-7.10,-3.62
111.225841,0.1724,-0.0972,1.0688,-4.58,5.86,4.94,-6.49,-6.78,-3.48
111.225841,0.1011,-0.0571,1.1128,-9.89,-20.14,-2.69,-6.57,-7.01,-3.44
111.285892,0.1377,-0.1162,0.9829,-18.68,-17.21,1.16,-6.92,-7.33,-3.44
111.285892,0.1211,-0.0996,0.7969,7.57,-0.18,14.47,-7.06,-7.48,-3.26
111.316111,0.1738,-0.0859,0.9858,4.39,16.48,18.98,-6.91,-7.24,-2.89
111.316111,0.1729,-0.1182,1.0010,9.46,11.90,1.83,-6.84,-6.95,-2.72
111.345064,0.1274,-0.0879,1.0415,7.20,9.28,-2.38,-6.64,-6.76,-2.77
111.345064,0.1255,-0.0845,1.0288,2.56,2.69,-2.50,-6.55,-6.65,-2.83
111.405872,0.1367,-0.0825,0.9731,2.69,1.77,-2.01,-6.50,-6.61,-2.88
111.405872,0.1377,-0.0820,0.9526,4.09,4.09,-1.65,-6.42,-6.55,-2.92
111.435106,0.1357,-0.0825,0.9741,3.78,5.31,-1.40,-6.33,-6.45,-2.96
111.435106,0.1313,-0.0820,1.0098,2.44,2.56,-0.43,-6.26,-6.37,-2.99
111.464877,0.1211,-0.0781,1.0054,-1.40,-0.92,-0.43,-6.26,-6.37,-2.99
111.464877,0.1235,-0.0811,0.9766,-0.31,-0.61,-0.61,-6.28,-6.39,-3.00
111.525036,0.1279,-0.0830,0.9722,2.44,2.75,-0.85,-6.26,-6.37,-3.02
111.525036,0.1240,-0.0791,0.9937,3.91,3.97,-0.92,-6.19,-6.30,-3.05
111.554918,0.1245,-0.0771,1.0039,2.01,2.26,-1.04,-6.12,-6.23,-3.07
111.554918,0.1318,-0.0815,0.9907,0.73,-0.12,-0.49,-6.09,-6.22,-3.09
111.584985,0.1265,-0.0767,0.9946,-1.77,-0.06,-0.12,-6.10,-6.23,-3.10
111.584985,0.1265,-0.0820,0.9756,0.24,0.12,-0.18,-6.12,-6.24,-3.10
111.644874,0.1235,-0.0786,0.9902,0.24,0.61,-0.18,-6.11,-6.22,-3.10
111.644874,0.1338,-0.0840,0.9761,1.71,10.56,0.31,-6.10,-6.15,-3.11
111.674870,0.1240,-0.0889,0.8550,7.75,13.24,1.65,-6.00,-5.84,-3.11
111.674870,0.1011,-0.0552,1.0947,5.92,15.62,0.55,-5.80,-5.57,-3.10
111.704890,0.0977,-0.0796,0.9932,1.71,6.53,-0.06,-5.78,-5.34,-3.12
111.704890,0.1060,-0.0718,1.0269,2.56,4.76,-0.06,-5.71,-5.24,-3.13
111.765796,0.1226,-0.0771,0.9497,2.81,7.81,0.37,-5.67,-5.12,-3.14
111.765796,0.1572,-0.0806,0.9355,17.09,13.06,3.97,-5.45,-4.87,-3.10
111.794922,0.1294,-0.0742,0.9829,21.85,29.24,5.68,-5.08,-4.39,-3.04
111.794922,0.0820,-0.0542,1.0317,25.70,42.30,7.57,-4.60,-3.64,-2.94
111.824874,-0.0093,-0.0083,1.0649,20.39,26.31,6.04,-4.12,-2.85,-2.85
111.824874,0.0386,-0.0117,1.0366,11.54,-6.35,2.01,-3.77,-2.79,-2.77
111.885027,0.0728,-0.0356,1.0132,-2.93,-9.03,-0.12,-3.72,-2.94,-2.75
111.885027,0.0762,-0.0439,0.9785,-0.49,-1.71,-0.12,-3.77,-3.05,-2.75
111.915219,-0.1377,0.2466,1.0610,12.02,5.00,-52.37,-3.67,-3.08,-2.91
111.915219,0.1089,-0.1064,0.9961,8.61,10.93,-69.95,-3.33,-2.88,-4.53
111.945718,0.0625,-0.0493,0.9966,1.59,9.22,-57.50,-3.18,-2.74,-5.67
111.945718,0.0557,-0.0425,0.9932,-0.55,8.30,-42.48,-3.08,-2.58,-6.67
112.005845,0.0586,-0.0293,0.9976,-0.24,9.83,-35.34,-3.04,-2.42,-7.41
112.005845,0.0430,-0.0190,0.9980,-1.53,10.19,-39.86,-3.03,-2.24,-8.17
112.035098,0.0415,-0.0190,0.9990,-1.53,10.07,-45.04,-3.01,-2.06,-9.03
112.035098,0.0420,-0.0244,1.0078,0.18,10.99,-52.55,-2.98,-1.88,-10.03
112.095765,0.0381,-0.0225,1.0049,1.95,12.39,-53.89,-2.92,-1.67,-11.10
112.095765,0.0410,-0.0229,1.0093,1.46,13.43,-54.87,-2.86,-1.46,-12.19
112.126059,0.0371,-0.0186,0.9961,7.93,20.39,-56.76,-2.72,-1.13,-13.32
112.126059,0.0303,-0.0088,0.9966,-1.89,13.31,-56.34,-2.62,-0.81,-14.45
112.155406,0.0376,-0.0234,0.9976,-0.49,14.83,-53.04,-2.59,-0.55,-15.56
112.155406,0.0229,-0.0122,0.9805,0.55,16.11,-47.55,-2.48,-0.16,-16.57
112.215903,0.0410,-0.0103,0.9956,4.21,19.90,-44.37,-2.46,0.14,-17.49
112.215903,0.0225,-0.0176,0.9985,-0.49,17.46,-42.72,-2.43,0.51,-18.38
112.247551,0.0073,-0.0181,1.0161,2.20,11.41,-39.86,-2.44,0.77,-19.20
112.247551,-0.0132,-0.0190,1.0215,7.81,-1.65,-48.46,-2.32,0.89,-20.04
112.275131,-0.0190,0.0137,0.9688,6.59,37.54,-66.77,-2.13,1.23,-21.25
112.275131,-0.1357,-0.0981,0.9868,-33.39,13.37,-18.43,-2.40,1.97,-22.41
112.335678,-0.0132,-0.0879,1.0405,-17.21,2.44,70.13,-3.02,1.94,-21.71
112.335678,-0.0303,-0.0103,0.9785,-6.71,23.74,77.88,-3.08,2.37,-20.04
112.364885,-0.0249,-0.0542,1.0176,-13.24,24.72,26.73,-3.39,2.79,-19.16
112.364885,-0.0317,-0.0522,1.0117,-2.26,23.13,49.68,-3.52,3.31,-18.42
112.395557,-0.0210,-0.0166,0.9985,-5.07,8.91,30.88,-3.52,3.67,-17.50
112.395557,-0.0181,-0.0186,0.9961,-3.85,5.86,26.25,-3.55,3.86,-17.02
112.455699,-0.0112,-0.0249,0.9922,-3.05,4.70,12.08,-3.58,3.98,-16.69
112.455699,-0.0132,-0.0239,0.9995,-1.46,3.42,7.81,-3.61,4.07,-16.50
112.484843,-0.0142,-0.0249,1.0010,-0.85,0.92,1.16,-3.63,4.12,-16.41
112.484843,-0.0596,-0.0352,0.9946,-0.67,0.43,-0.31,-3.64,4.13,-16.41
112.515950,-0.0620,-0.0366,0.9990,0.00,0.73,-0.12,-3.65,4.14,-16.42
112.515950,-0.0605,-0.0356,0.9985,-0.12,0.43,-0.06,-3.65,4.16,-16.42
112.577669,-0.0605,-0.0371,0.9980,0.00,0.73,-0.06,-3.65,4.17,-16.42
112.577669,-0.0610,-0.0361,0.9990,-0.06,0.67,-0.06,-3.65,4.18,-16.42
112.607581,-0.0605,-0.0361,0.9995,-0.06,0.55,0.00,-3.65,4.19,-16.42
112.607581,-0.0620,-0.0361,0.9985,0.00,0.61,-0.06,-3.65,4.20,-16.43
112.635573,-0.0615,-0.0356,0.9985,0.00,0.55,-0.06,-3.65,4.22,-16.43
112.635573,-0.0615,-0.0361,0.9985,0.00,0.55,-0.06,-3.65,4.23,-16.43
112.695768,-0.0620,-0.0361,0.9985,0.06,0.55,-0.06,-3.65,4.24,-16.44
112.695768,-0.0620,-0.0356,0.9995,0.00,0.49,-0.06,-3.65,4.25,-16.44
112.724879,-0.0625,-0.0361,0.9976,0.00,0.49,-0.06,-3.64,4.26,-16.44
112.724879,-0.0615,-0.0356,0.9985,0.00,0.49,-0.06,-3.64,4.27,-16.44
112.755697,-0.0625,-0.0366,0.9995,0.06,0.43,-0.06,-3.64,4.28,-16.44
112.755697,-0.0625,-0.0361,0.9980,0.00,0.43,-0.06,-3.64,4.28,-16.45
112.815929,-0.0630,-0.0356,0.9985,0.00,0.43,-0.06,-3.64,4.30,-16.45
112.815929,-0.0635,-0.0361,0.9980,0.00,0.31,-0.12,-3.64,4.30,-16.45
112.847634,-0.0635,-0.0366,0.9985,0.00,0.31,-0.12,-3.64,4.31,-16.45
112.847634,-0.0640,-0.0356,0.9985,-0.12,0.31,-0.12,-3.64,4.31,-16.46
112.877783,-0.0635,-0.0361,0.9995,0.00,0.31,-0.12,-3.64,4.32,-16.46
112.877783,-0.0640,-0.0356,0.9985,0.00,0.24,-0.12,-3.64,4.33,-16.46
112.935698,-0.0630,-0.0356,0.9980,-0.06,0.31,-0.12,-3.64,4.33,-16.46
112.935698,-0.0635,-0.0361,0.9980,0.00,0.37,-0.12,-3.64,4.34,-16.47
112.964864,-0.0640,-0.0361,0.9980,0.00,0.24,-0.06,-3.64,4.35,-16.47
112.964864,-0.0640,-0.0361,0.9985,0.00,0.31,-0.12,-3.64,4.35,-16.47
112.995630,-0.0635,-0.0356,0.9980,0.00,0.31,-0.12,-3.64,4.36,-16.47
112.995630,-0.0640,-0.0361,0.9990,0.00,0.31,-0.12,-3.64,4.36,-16.48
113.055801,-0.0645,-0.0366,0.9980,0.00,0.31,-0.12,-3.64,4.37,-16.48
113.055801,-0.0640,-0.0361,0.9980,0.00,0.31,-0.12,-3.64,4.37,-16.48
113.084935,-0.0640,-0.0356,0.9985,0.00,0.24,-0.12,-3.64,4.38,-16.48
113.084935,-0.0625,-0.0356,0.9985,0.00,0.18,-0.18,-3.64,4.38,-16.49
113.115890,-0.0635,-0.0352,0.9980,0.00,0.18,-0.06,-3.64,4.39,-16.49
113.115890,-0.0649,-0.0356,0.9976,0.00,0.24,-0.12,-3.64,4.39,-16.50
113.175834,-0.0654,-0.0356,0.9971,0.00,0.12,-0.18,-3.64,4.40,-16.50
113.175834,-0.0649,-0.0361,0.9980,-0.06,0.18,-0.12,-3.63,4.41,-16.44
113.204936,-0.0649,-0.0356,0.9980,0.00,0.18,-0.06,-3.61,4.42,-16.37
113.204936,-0.0654,-0.0371,0.9976,0.00,0.12,-0.06,-3.60,4.43,-16.31
113.235633,-0.0649,-0.0356,0.9980,0.00,0.18,-0.12,-3.59,4.44,-16.24
113.235633,-0.0649,-0.0361,0.9971,0.00,0.12,-0.12,-3.58,4.45,-16.18
113.295107,-0.0654,-0.0356,0.9976,0.00,0.12,-0.12,-3.57,4.45,-16.12
113.295107,-0.0654,-0.0361,0.9976,-0.06,0.18,-0.12,-3.56,4.47,-16.06
113.325808,-0.0649,-0.0356,0.9976,0.00,0.12,-0.18,-3.55,4.48,-16.00
113.325808,-0.0654,-0.0361,0.9971,0.00,0.12,-0.12,-3.54,4.48,-15.93
113.355066,-0.0654,-0.0352,0.9976,0.00,0.06,-0.18,-3.53,4.49,-15.87
113.355066,-0.0654,-0.0361,0.9980,0.00,0.18,-0.06,-3.52,4.50,-15.81
113.416217,-0.0649,-0.0352,0.9985,0.00,0.18,-0.12,-3.51,4.51,-15.74
113.416217,-0.0649,-0.0356,0.9985,0.00,0.18,-0.18,-3.50,4.52,-15.68
113.445205,-0.0654,-0.0352,0.9980,0.00,0.18,-0.12,-3.49,4.53,-15.62
113.445205,-0.0659,-0.0356,0.9976,0.00,0.12,-0.18,-3.48,4.53,-15.56
113.505849,-0.0659,-0.0361,0.9971,0.00,0.12,-0.12,-3.47,4.54,-15.50
113.505849,-0.0659,-0.0361,0.9980,0.00,0.12,-0.18,-3.55,4.47,-15.51
113.534938,-0.0649,-0.0366,0.9985,0.00,0.12,-0.12,-3.55,4.47,-15.51
113.534938,-0.0654,-0.0352,0.9980,-0.06,0.12,-0.18,-3.55,4.48,-15.51
113.565652,-0.0659,-0.0361,0.9976,0.00,0.06,-0.18,-3.55,4.48,-15.51
113.565652,-0.0654,-0.0356,0.9976,0.00,0.12,-0.18,-3.55,4.48,-15.51
113.625740,-0.0654,-0.0361,0.9985,-0.06,0.12,-0.18,-3.55,4.48,-15.51
113.625740,-0.0659,-0.0361,0.9985,0.00,0.12,-0.18,-3.55,4.48,-15.51
113.654869,-0.0664,-0.0356,0.9976,0.00,0.12,-0.18,-3.55,4.48,-15.51
113.654869,-0.0659,-0.0352,0.9976,0.00,0.06,-0.12,-3.55,4.48,-15.51
113.685734,-0.0659,-0.0356,0.9976,0.00,0.12,-0.12,-3.55,4.48,-15.51
113.685734,-0.0664,-0.0356,0.9985,0.00,0.12,-0.12,-3.55,4.48,-15.51
113.745631,-0.0659,-0.0352,0.9966,0.00,0.12,-0.12,-3.55,4.48,-15.51
113.745631,-0.0674,-0.0366,0.9980,0.00,0.12,-0.12,-3.54,4.48,-15.51
113.775005,-0.0659,-0.0356,0.9976,0.00,0.06,-0.18,-3.54,4.48,-15.51
113.775005,-0.0659,-0.0356,0.9985,0.00,0.06,-0.18,-3.54,4.48,-15.51
113.805662,-0.0654,-0.0356,0.9976,0.00,0.12,-0.18,-3.54,4.48,-15.51
113.805662,-0.0669,-0.0356,0.9966,-0.06,0.06,-0.18,-3.54,4.48,-15.51
113.864859,-0.0679,-0.0352,0.9976,0.00,0.12,-0.18,-3.54,4.49,-15.51
113.864859,-0.0674,-0.0356,0.9971,0.00,0.06,-0.12,-3.54,4.49,-15.51
113.895771,-0.0669,-0.0356,0.9976,0.00,0.12,-0.18,-3.54,4.49,-15.51
113.895771,-0.0669,-0.0356,0.9971,0.00,0.06,-0.18,-3.54,4.49,-15.51
113.924880,-0.0669,-0.0356,0.9961,0.00,0.00,-0.12,-3.54,4.49,-15.51
113.924880,-0.0669,-0.0356,0.9966,-0.06,0.06,-0.18,-3.54,4.49,-15.51
113.985674,-0.0674,-0.0352,0.9971,0.00,0.06,-0.18,-3.54,4.49,-15.51
113.985674,-0.0664,-0.0352,0.9971,-0.06,0.06,-0.18,-3.54,4.49,-15.51
114.015324,-0.0669,-0.0361,0.9980,0.00,0.06,-0.18,-3.54,4.49,-15.51
114.015324,-0.0674,-0.0356,0.9976,0.00,0.06,-0.12,-3.54,4.49,-15.51
114.045824,-0.0664,-0.0361,0.9976,-0.06,0.06,-0.12,-3.54,4.50,-15.51
114.045824,-0.0669,-0.0352,0.9980,0.00,0.00,-0.12,-3.54,4.50,-15.51
114.105776,-0.0664,-0.0356,0.9976,-0.06,0.06,-0.18,-3.54,4.50,-15.51
114.105776,-0.0669,-0.0356,0.9980,0.00,0.12,-0.18,-3.54,4.50,-15.51
114.134922,-0.0664,-0.0356,0.9980,0.00,0.06,-0.18,-3.54,4.50,-15.51
114.134922,-0.0674,-0.0352,0.9980,0.00,0.06,-0.12,-3.54,4.50,-15.51
114.165674,-0.0674,-0.0356,0.9980,0.00,0.06,-0.12,-3.54,4.50,-15.51
114.165674,-0.0669,-0.0361,0.9985,0.00,0.06,-0.12,-3.54,4.50,-15.51
114.225679,-0.0674,-0.0356,0.9976,0.00,0.06,-0.18,-3.54,4.50,-15.51
114.225679,-0.0674,-0.0356,0.9976,0.00,0.06,-0.18,-3.54,4.50,-15.51
114.255060,-0.0684,-0.0356,0.9971,0.00,0.06,-0.18,-3.54,4.50,-15.51
114.255060,-0.0674,-0.0361,0.9971,0.00,0.06,-0.12,-3.54,4.50,-15.51
114.285887,-0.0669,-0.0366,0.9976,0.00,0.06,-0.12,-3.54,4.51,-15.51
114.285887,-0.0674,-0.0347,0.9976,0.00,0.06,-0.18,-3.54,4.51,-15.51
114.347645,-0.0679,-0.0356,0.9980,0.00,0.12,-0.18,-3.54,4.51,-15.51
114.347645,-0.0674,-0.0356,0.9985,0.00,0.06,-0.12,-3.54,4.51,-15.51
114.376420,-0.0674,-0.0366,0.9985,0.00,0.12,-0.18,-3.54,4.51,-15.51
114.376420,-0.0679,-0.0352,0.9980,0.00,0.12,-0.18,-3.54,4.52,-15.51
114.405205,-0.0679,-0.0356,0.9976,-0.06,0.00,-0.18,-3.54,4.52,-15.51
114.405205,-0.0669,-0.0352,0.9980,0.00,0.06,-0.18,-3.54,4.52,-15.51
114.465680,-0.0674,-0.0356,0.9971,0.00,0.06,-0.24,-3.54,4.52,-15.51
114.465680,-0.0669,-0.0356,0.9976,0.00,0.00,-0.18,-3.54,4.52,-15.51
114.494866,-0.0669,-0.0356,0.9976,0.00,0.00,-0.18,-3.54,4.52,-15.51
114.494866,-0.0669,-0.0352,0.9985,0.00,0.00,-0.12,-3.54,4.52,-15.51
114.525650,-0.0684,-0.0356,0.9976,0.00,0.12,-0.12,-3.54,4.52,-15.51
114.525650,-0.0679,-0.0356,0.9985,0.00,0.06,-0.24,-3.54,4.52,-15.51
114.585712,-0.0679,-0.0361,0.9980,-0.06,0.06,-0.24,-3.54,4.52,-15.51
114.585712,-0.0679,-0.0347,0.9976,0.00,0.12,-0.18,-3.54,4.53,-15.51
114.615244,-0.0679,-0.0356,0.9980,0.00,0.06,-0.12,-3.54,4.53,-15.51
114.615244,-0.0679,-0.0366,0.9980,0.00,0.06,-0.12,-3.54,4.53,-15.51
114.645797,-0.0679,-0.0361,0.9980,0.00,0.06,-0.18,-3.54,4.53,-15.51
114.645797,-0.0679,-0.0352,0.9980,0.00,0.06,-0.12,-3.54,4.53,-15.51
114.705794,-0.0674,-0.0356,0.9980,0.00,0.00,-0.18,-3.54,4.53,-15.51
114.705794,-0.0679,-0.0347,0.9966,-0.06,0.00,-0.12,-3.54,4.53,-15.51
114.734941,-0.0679,-0.0352,0.9985,0.00,0.00,-0.18,-3.54,4.53,-15.51
114.734941,-0.0679,-0.0356,0.9976,0.00,0.06,-0.18,-3.54,4.53,-15.51
114.765698,-0.0674,-0.0352,0.9971,0.00,0.00,-0.24,-3.54,4.53,-15.51
114.765698,-0.0674,-0.0347,0.9971,0.00,0.00,-0.12,-3.53,4.53,-15.51
114.824892,-0.0684,-0.0347,0.9976,-0.06,0.00,-0.12,-3.53,4.54,-15.51
114.824892,-0.0688,-0.0356,0.9971,-0.06,0.06,-0.12,-3.53,4.54,-15.51
114.857565,-0.0688,-0.0347,0.9966,0.00,0.06,-0.18,-3.53,4.54,-15.51
114.857565,-0.0684,-0.0356,0.9976,0.00,0.00,-0.12,-3.53,4.54,-15.51
114.915922,-0.0679,-0.0356,0.9961,0.00,0.06,-0.18,-3.53,4.54,-15.51
114.915922,-0.0679,-0.0356,0.9961,0.00,0.00,-0.18,-3.53,4.54,-15.51
114.945192,-0.0679,-0.0361,0.9971,-0.06,0.00,-0.12,-3.53,4.54,-15.51
114.945192,-0.0684,-0.0356,0.9980,0.00,0.06,-0.18,-3.53,4.54,-15.51
114.975783,-0.0679,-0.0356,0.9971,0.00,0.00,-0.24,-3.53,4.54,-15.51
114.975783,-0.0688,-0.0356,0.9990,-0.06,0.00,-0.18,-3.53,4.54,-15.51
115.035933,-0.0679,-0.0352,0.9985,-0.06,0.06,-0.18,-3.53,4.55,-15.51
115.035933,-0.0679,-0.0347,0.9980,0.00,0.00,-0.12,-3.53,4.55,-15.51
115.065040,-0.0684,-0.0356,0.9971,0.00,0.06,-0.18,-3.53,4.55,-15.51
115.065040,-0.0684,-0.0361,0.9966,0.00,0.06,-0.18,-3.53,4.55,-15.51
115.095868,-0.0679,-0.0371,0.9976,-0.06,0.06,-0.18,-3.53,4.55,-15.51
115.095868,-0.0693,-0.0356,0.9966,0.00,0.06,-0.12,-3.53,4.55,-15.51
115.155733,-0.0679,-0.0361,0.9971,0.00,0.00,-0.12,-3.53,4.55,-15.51
115.155733,-0.0679,-0.0361,0.9976,0.00,0.00,-0.18,-3.53,4.55,-15.51
115.184931,-0.0684,-0.0352,0.9971,0.00,0.12,-0.18,-3.53,4.55,-15.51
115.184931,-0.0679,-0.0356,0.9980,0.00,0.06,-0.18,-3.53,4.55,-15.51
115.216389,-0.0684,-0.0361,0.9971,-0.06,0.00,-0.12,-3.53,4.55,-15.51
115.216389,-0.0679,-0.0356,0.9980,-0.06,0.00,-0.18,-3.53,4.56,-15.50
115.275772,-0.0679,-0.0356,0.9980,0.00,0.06,-0.18,-3.53,4.56,-15.50
115.275772,-0.0679,-0.0356,0.9976,-0.06,0.00,-0.18,-3.53,4.56,-15.50
115.304971,-0.0684,-0.0352,0.9971,0.00,0.06,-0.12,-3.53,4.56,-15.50
115.304971,-0.0679,-0.0356,0.9976,0.00,0.00,-0.06,-3.53,4.56,-15.50
115.335640,-0.0679,-0.0356,0.9985,0.00,0.00,-0.24,-3.53,4.56,-15.50
115.335640,-0.0679,-0.0366,0.9980,-0.06,0.00,-0.06,-3.53,4.56,-15.50
115.395819,-0.0693,-0.0356,0.9976,-0.06,0.00,-0.12,-3.53,4.56,-15.50
115.395819,-0.0684,-0.0347,0.9976,0.00,0.00,-0.12,-3.53,4.56,-15.50
115.424985,-0.0693,-0.0356,0.9966,0.00,0.00,-0.12,-3.53,4.56,-15.50
115.424985,-0.0679,-0.0352,0.9980,0.00,0.00,-0.18,-3.53,4.56,-15.50
115.455754,-0.0688,-0.0352,0.9976,0.00,0.00,-0.18,-3.53,4.56,-15.50
115.455754,-0.0674,-0.0356,0.9971,0.00,0.00,-0.12,-3.53,4.57,-15.50
115.515999,-0.0679,-0.0361,0.9980,-0.06,0.00,-0.18,-3.53,4.57,-15.50
115.515999,-0.0684,-0.0361,0.9980,-0.06,0.00,-0.18,-3.53,4.57,-15.50
115.544917,-0.0684,-0.0356,0.9976,-0.06,0.00,-0.18,-3.53,4.57,-15.50
115.544917,-0.0679,-0.0352,0.9980,0.00,0.00,-0.18,-3.53,4.57,-15.50
115.575693,-0.0688,-0.0352,0.9980,0.00,0.00,-0.12,-3.53,4.57,-15.50
115.575693,-0.0679,-0.0356,0.9976,0.00,0.00,-0.18,-3.53,4.58,-15.50
115.635696,-0.0684,-0.0361,0.9980,0.00,0.00,-0.24,-3.53,4.58,-15.50
115.635696,-0.0679,-0.0352,0.9985,0.00,0.00,-0.18,-3.53,4.58,-15.50
115.664896,-0.0688,-0.0356,0.9985,0.00,0.00,-0.18,-3.53,4.58,-15.50
115.664896,-0.0684,-0.0356,0.9980,0.00,0.06,-0.18,-3.53,4.58,-15.50
115.695653,-0.0688,-0.0361,0.9985,-0.06,0.00,-0.18,-3.53,4.58,-15.50
115.695653,-0.0688,-0.0361,0.9976,0.00,0.00,-0.18,-3.53,4.58,-15.50
115.755873,-0.0693,-0.0356,0.9985,-0.06,0.00,-0.06,-3.53,4.58,-15.50
115.755873,-0.0684,-0.0356,0.9985,-0.06,0.00,-0.12,-3.53,4.58,-15.50
115.784940,-0.0684,-0.0361,0.9976,0.00,0.06,-0.18,-3.53,4.58,-15.50
115.784940,-0.0684,-0.0352,0.9976,-0.06,0.06,-0.18,-3.53,4.58,-15.50
115.815938,-0.0688,-0.0356,0.9980,0.00,0.00,-0.18,-3.53,4.58,-15.50
115.815938,-0.0688,-0.0356,0.9971,0.00,0.00,-0.18,-3.53,4.58,-15.50
115.875706,-0.0693,-0.0352,0.9976,0.00,0.00,-0.18,-3.53,4.59,-15.50
115.875706,-0.0688,-0.0356,0.9976,0.00,0.06,-0.18,-3.53,4.59,-15.50
115.904943,-0.0679,-0.0352,0.9980,0.00,0.06,-0.12,-3.53,4.59,-15.50
115.904943,-0.0688,-0.0356,0.9976,-0.06,0.00,-0.06,-3.53,4.59,-15.50
115.935860,-0.0679,-0.0361,0.9980,0.00,0.00,-0.18,-3.53,4.59,-15.50
115.935860,-0.0688,-0.0356,0.9976,0.00,0.00,-0.24,-3.53,4.59,-15.50
115.996202,-0.0684,-0.0347,0.9980,0.00,0.06,-0.18,-3.53,4.59,-15.50
115.996202,-0.0688,-0.0361,0.9976,-0.06,0.00,-0.18,-3.53,4.59,-15.50
116.027163,-0.0684,-0.0352,0.9976,0.00,0.00,-0.06,-3.53,4.59,-15.50
116.027163,-0.0688,-0.0361,0.9985,0.00,0.00,-0.12,-3.53,4.59,-15.50
116.055871,-0.0688,-0.0356,0.9980,-0.06,0.00,-0.12,-3.53,4.59,-15.50
116.055871,-0.0684,-0.0356,0.9985,-0.06,0.00,-0.18,-3.53,4.59,-15.50
116.116002,-0.0679,-0.0352,0.9985,0.00,0.00,-0.12,-3.53,4.59,-15.50
116.116002,-0.0688,-0.0356,0.9966,-0.06,0.00,-0.18,-3.53,4.59,-15.50
116.144926,-0.0688,-0.0352,0.9985,0.00,0.00,-0.12,-3.53,4.60,-15.50
116.144926,-0.0693,-0.0361,0.9980,0.00,0.00,-0.18,-3.53,4.60,-15.50
116.175711,-0.0684,-0.0352,0.9976,0.00,0.06,-0.12,-3.53,4.60,-15.50
116.175711,-0.0688,-0.0361,0.9985,0.00,0.06,-0.18,-3.53,4.60,-15.50
116.235721,-0.0688,-0.0361,0.9980,0.00,0.00,-0.24,-3.53,4.60,-15.50
116.235721,-0.0693,-0.0361,0.9990,0.00,0.00,-0.12,-3.53,4.60,-15.50
116.264998,-0.0688,-0.0352,0.9985,0.00,0.00,-0.18,-3.53,4.60,-15.50
116.264998,-0.0693,-0.0356,0.9980,0.00,0.00,-0.18,-3.53,4.60,-15.50
116.325753,-0.0688,-0.0347,0.9980,-0.06,0.00,-0.18,-3.53,4.60,-15.50
116.325753,-0.0688,-0.0352,0.9971,-0.06,0.00,-0.12,-3.53,4.60,-15.50
116.354938,-0.0688,-0.0356,0.9985,0.00,0.00,-0.18,-3.53,4.60,-15.50
116.354938,-0.0693,-0.0356,0.9980,0.00,0.00,-0.18,-3.53,4.60,-15.50
116.385632,-0.0688,-0.0356,0.9976,0.00,0.00,-0.24,-3.53,4.60,-15.50
116.385632,-0.0693,-0.0347,0.9980,0.00,0.00,-0.18,-3.53,4.61,-15.50
116.445755,-0.0693,-0.0347,0.9971,0.00,0.00,-0.18,-3.53,4.61,-15.50
116.445755,-0.0688,-0.0352,0.9976,-0.06,0.00,-0.18,-3.53,4.61,-15.50
116.474928,-0.0688,-0.0347,0.9985,-0.06,0.00,-0.18,-3.53,4.61,-15.50
116.474928,-0.0679,-0.0352,0.9980,0.00,0.00,-0.12,-3.53,4.61,-15.50
116.505822,-0.0693,-0.0356,0.9985,0.00,0.00,-0.18,-3.52,4.61,-15.50
116.505822,-0.0684,-0.0356,0.9976,0.00,0.06,-0.18,-3.52,4.61,-15.50
116.565860,-0.0693,-0.0361,0.9976,0.00,0.00,-0.18,-3.52,4.61,-15.50
116.565860,-0.0693,-0.0356,0.9980,-0.06,0.06,-0.18,-3.52,4.61,-15.50
116.595081,-0.0684,-0.0356,0.9980,0.00,0.00,-0.18,-3.52,4.61,-15.50
116.595081,-0.0688,-0.0347,0.9985,0.00,0.06,-0.18,-3.52,4.61,-15.50
116.625716,-0.0688,-0.0361,0.9980,0.00,0.00,-0.12,-3.52,4.61,-15.50
116.625716,-0.0688,-0.0352,0.9980,0.00,0.00,-0.12,-3.52,4.61,-15.50
116.685745,-0.0688,-0.0347,0.9980,-0.06,0.00,-0.18,-3.52,4.61,-15.50
116.685745,-0.0688,-0.0356,0.9985,-0.06,0.00,-0.12,-3.52,4.61,-15.50
116.715250,-0.0693,-0.0352,0.9985,0.00,0.00,-0.18,-3.52,4.62,-15.50
116.715250,-0.0688,-0.0356,0.9976,-0.06,0.00,-0.18,-3.52,4.62,-15.50
116.745734,-0.0693,-0.0356,0.9976,0.00,0.00,-0.18,-3.52,4.62,-15.50
116.745734,-0.0693,-0.0356,0.9976,-0.06,0.00,-0.18,-3.52,4.62,-15.50
116.805783,-0.0693,-0.0352,0.9976,0.00,0.00,-0.18,-3.52,4.62,-15.50
116.805783,-0.0693,-0.0352,0.9976,0.00,0.00,-0.18,-3.52,4.62,-15.50
116.834950,-0.0698,-0.0356,0.9971,-0.06,0.00,-0.18,-3.52,4.62,-15.50
116.834950,-0.0693,-0.0371,0.9971,0.00,0.00,-0.18,-3.52,4.63,-15.50
116.867706,-0.0688,-0.0352,0.9980,-0.06,0.00,-0.18,-3.52,4.63,-15.50
116.867706,-0.0684,-0.0352,0.9976,0.00,0.00,-0.18,-3.52,4.63,-15.50
116.925745,-0.0688,-0.0352,0.9976,0.00,0.00,-0.18,-3.52,4.63,-15.50
116.925745,-0.0688,-0.0356,0.9966,0.00,0.00,-0.18,-3.52,4.63,-15.50
116.954945,-0.0693,-0.0352,0.9980,0.00,0.06,-0.18,-3.52,4.63,-15.50
116.954945,-0.0688,-0.0356,0.9966,-0.06,0.06,-0.12,-3.52,4.63,-15.50
116.985711,-0.0693,-0.0356,0.9976,-0.06,0.00,-0.12,-3.52,4.63,-15.50
116.985711,-0.0693,-0.0361,0.9976,0.00,0.00,-0.12,-3.52,4.63,-15.50
117.046427,-0.0688,-0.0361,0.9961,0.00,0.06,-0.18,-3.52,4.63,-15.50
117.046427,-0.0688,-0.0356,0.9966,0.00,0.06,-0.18,-3.52,4.63,-15.50
117.075019,-0.0693,-0.0356,0.9971,0.00,0.00,-0.24,-3.52,4.63,-15.50
117.075019,-0.0688,-0.0352,0.9971,0.00,0.00,-0.18,-3.52,4.63,-15.50
117.105734,-0.0693,-0.0356,0.9966,-0.06,0.00,-0.18,-3.52,4.63,-15.50
117.105734,-0.0684,-0.0361,0.9976,0.00,0.00,-0.18,-3.52,4.63,-15.50
117.165745,-0.0693,-0.0347,0.9971,-0.06,0.00,-0.18,-3.52,4.64,-15.50
117.165745,-0.0698,-0.0352,0.9976,0.00,0.00,-0.12,-3.52,4.64,-15.50
117.195038,-0.0693,-0.0347,0.9971,0.00,0.00,-0.12,-3.52,4.64,-15.50
117.195038,-0.0698,-0.0356,0.9980,0.00,0.00,-0.18,-3.52,4.64,-15.50
117.225746,-0.0698,-0.0347,0.9966,0.00,0.00,-0.18,-3.52,4.64,-15.50
117.225746,-0.0688,-0.0347,0.9971,0.00,0.00,-0.18,-3.52,4.64,-15.50
117.285926,-0.0693,-0.0356,0.9976,0.00,0.00,-0.18,-3.52,4.64,-15.50
117.285926,-0.0693,-0.0356,0.9966,-0.06,0.06,-0.18,-3.52,4.64,-15.50
117.315293,-0.0688,-0.0352,0.9966,0.00,0.00,-0.24,-3.52,4.64,-15.50
117.315293,-0.0693,-0.0352,0.9980,-0.06,0.00,-0.18,-3.52,4.64,-15.50
117.345749,-0.0688,-0.0356,0.9976,-0.06,0.00,-0.18,-3.52,4.64,-15.50
117.345749,-0.0679,-0.0361,0.9976,0.00,0.00,-0.12,-3.52,4.64,-15.50
117.405938,-0.0688,-0.0352,0.9980,0.00,0.00,-0.18,-3.52,4.64,-15.50
117.405938,-0.0688,-0.0361,0.9976,-0.06,0.00,-0.18,-3.52,4.64,-15.50
117.435012,-0.0693,-0.0352,0.9976,0.00,0.00,-0.12,-3.52,4.64,-15.50
117.435012,-0.0693,-0.0361,0.9971,0.00,0.00,-0.12,-3.52,4.64,-15.50
117.465698,-0.0688,-0.0356,0.9976,0.00,0.00,-0.18,-3.52,4.64,-15.50
117.465698,-0.0688,-0.0352,0.9976,0.00,0.00,-0.12,-3.52,4.65,-15.50
117.525866,-0.0698,-0.0352,0.9980,0.00,0.00,-0.18,-3.52,4.65,-15.50
117.525866,-0.0693,-0.0356,0.9980,0.00,0.06,-0.12,-3.52,4.65,-15.50
117.555171,-0.0688,-0.0352,0.9971,0.00,0.00,-0.18,-3.52,4.65,-15.50
117.555171,-0.0688,-0.0352,0.9976,0.00,0.00,-0.18,-3.52,4.65,-15.50
117.585916,-0.0698,-0.0356,0.9985,0.00,0.00,-0.18,-3.52,4.65,-15.50
117.585916,-0.0688,-0.0356,0.9980,0.00,0.00,-0.12,-3.52,4.65,-15.50
117.646075,-0.0693,-0.0352,0.9971,0.00,0.06,-0.12,-3.52,4.65,-15.50
117.646075,-0.0693,-0.0352,0.9976,0.00,0.00,-0.12,-3.52,4.65,-15.50
117.675433,-0.0688,-0.0352,0.9976,-0.06,0.00,-0.24,-3.52,4.65,-15.50
117.675433,-0.0693,-0.0356,0.9971,0.00,0.00,-0.18,-3.52,4.65,-15.50
117.735769,-0.0693,-0.0356,0.9971,0.00,0.00,-0.18,-3.52,4.65,-15.50
117.735769,-0.0688,-0.0361,0.9976,0.00,0.00,-0.18,-3.52,4.65,-15.50
117.765038,-0.0688,-0.0356,0.9971,0.00,0.00,-0.18,-3.52,4.65,-15.50
117.765038,-0.0693,-0.0356,0.9971,0.00,0.00,-0.18,-3.52,4.65,-15.50
117.795738,-0.0684,-0.0352,0.9980,0.00,0.00,-0.12,-3.52,4.65,-15.50
117.795738,-0.0688,-0.0352,0.9980,-0.06,0.00,-0.12,-3.52,4.65,-15.50
117.855863,-0.0693,-0.0347,0.9976,0.00,0.00,-0.18,-3.52,4.65,-15.50
117.855863,-0.0693,-0.0356,0.9976,0.00,0.00,-0.24,-3.52,4.66,-15.50
117.885009,-0.0693,-0.0352,0.9966,0.00,0.00,-0.12,-3.52,4.66,-15.50
117.885009,-0.0688,-0.0352,0.9976,0.00,0.00,-0.18,-3.52,4.66,-15.50
117.916021,-0.0684,-0.0361,0.9985,-0.06,0.00,-0.18,-3.52,4.66,-15.50
117.916021,-0.0693,-0.0352,0.9976,0.00,0.00,-0.18,-3.52,4.66,-15.50
117.975737,-0.0698,-0.0352,0.9980,0.00,0.00,-0.12,-3.52,4.66,-15.50
117.975737,-0.0688,-0.0347,0.9976,-0.06,0.00,-0.12,-3.52,4.66,-15.50
118.004948,-0.0688,-0.0356,0.9966,0.00,0.00,-0.24,-3.52,4.66,-15.50
118.004948,-0.0693,-0.0361,0.9976,-0.06,-0.06,-0.12,-3.52,4.66,-15.50
118.035877,-0.0693,-0.0361,0.9976,-0.06,0.00,-0.18,-3.52,4.66,-15.50
118.035877,-0.0693,-0.0356,0.9971,0.00,0.00,-0.18,-3.52,4.66,-15.50
118.095970,-0.0698,-0.0356,0.9976,-0.06,0.00,-0.18,-3.52,4.66,-15.50
118.095970,-0.0698,-0.0356,0.9976,-0.06,0.00,-0.18,-3.52,4.66,-15.50
118.125032,-0.0698,-0.0347,0.9976,0.00,0.00,-0.18,-3.52,4.66,-15.50
118.125032,-0.0693,-0.0352,0.9976,-0.06,0.06,-0.12,-3.52,4.66,-15.50
118.155813,-0.0688,-0.0356,0.9985,-0.06,0.00,-0.12,-3.52,4.66,-15.50
118.155813,-0.0688,-0.0352,0.9976,0.00,0.00,-0.18,-3.52,4.66,-15.50
118.216064,-0.0688,-0.0352,0.9966,-0.06,0.00,-0.18,-3.52,4.66,-15.50
118.216064,-0.0693,-0.0352,0.9971,0.00,0.00,-0.06,-3.52,4.66,-15.50
118.275990,-0.0693,-0.0352,0.9961,0.00,0.00,-0.18,-3.52,4.66,-15.50
118.275990,-0.0698,-0.0361,0.9971,-0.06,0.00,-0.12,-3.52,4.67,-15.50
118.278036,-0.0698,-0.0356,0.9976,0.00,0.00,-0.24,-3.52,4.67,-15.50
118.278036,-0.0693,-0.0352,0.9980,-0.06,0.00,-0.18,-3.52,4.67,-15.50
118.335807,-0.0688,-0.0352,0.9985,0.00,0.00,-0.18,-3.52,4.67,-15.50
118.335807,-0.0688,-0.0352,0.9985,0.00,0.00,-0.12,-3.52,4.67,-15.50
118.364984,-0.0688,-0.0352,0.9976,0.00,0.00,-0.24,-3.52,4.67,-15.50
118.364984,-0.0688,-0.0352,0.9976,0.00,0.00,-0.18,-3.52,4.67,-15.50
118.395975,-0.0693,-0.0361,0.9976,0.00,0.00,-0.12,-3.52,4.67,-15.50
118.395975,-0.0698,-0.0361,0.9971,-0.06,0.00,-0.18,-3.52,4.67,-15.50
118.455861,-0.0698,-0.0356,0.9980,-0.06,0.00,-0.18,-3.52,4.67,-15.50
118.455861,-0.0698,-0.0352,0.9966,0.00,0.00,-0.18,-3.52,4.67,-15.50
118.485044,-0.0703,-0.0356,0.9976,-0.06,0.00,-0.12,-3.52,4.67,-15.50
118.485044,-0.0693,-0.0361,0.9976,0.00,0.00,-0.12,-3.52,4.67,-15.50
118.516243,-0.0688,-0.0352,0.9976,0.00,0.00,-0.18,-3.52,4.67,-15.50
118.516243,-0.0698,-0.0361,0.9976,0.00,0.00,-0.12,-3.52,4.67,-15.50
118.578154,-0.0693,-0.0361,0.9966,0.00,0.00,-0.12,-3.52,4.67,-15.50
118.578154,-0.0688,-0.0356,0.9980,-0.06,0.00,-0.12,-3.52,4.67,-15.50
118.607771,-0.0703,-0.0361,0.9971,0.00,0.00,-0.12,-3.52,4.67,-15.50
118.607771,-0.0688,-0.0352,0.9976,-0.06,0.00,-0.12,-3.52,4.67,-15.50
118.637718,-0.0693,-0.0356,0.9976,0.00,0.00,-0.12,-3.52,4.67,-15.50
118.637718,-0.0698,-0.0361,0.9976,-0.06,0.00,-0.12,-3.52,4.68,-15.50
118.695775,-0.0688,-0.0347,0.9976,-0.06,0.00,-0.12,-3.52,4.68,-15.50
118.695775,-0.0688,-0.0352,0.9976,-0.06,0.00,-0.18,-3.52,4.68,-15.50
118.724987,-0.0693,-0.0356,0.9980,0.00,0.00,-0.12,-3.52,4.68,-15.50
118.724987,-0.0693,-0.0356,0.9966,0.00,0.00,-0.24,-3.52,4.68,-15.50
118.755754,-0.0693,-0.0352,0.9976,0.00,0.00,-0.12,-3.52,4.68,-15.50
118.755754,-0.0698,-0.0356,0.9976,0.00,0.00,-0.12,-3.52,4.68,-15.50
118.816079,-0.0698,-0.0361,0.9966,0.00,0.00,-0.12,-3.52,4.68,-15.50
118.816079,-0.0698,-0.0352,0.9980,0.00,0.00,-0.24,-3.52,4.68,-15.50
118.844995,-0.0688,-0.0352,0.9976,0.00,0.00,-0.12,-3.52,4.68,-15.50
118.844995,-0.0693,-0.0352,0.9985,0.00,0.00,-0.12,-3.52,4.68,-15.50
118.875717,-0.0703,-0.0356,0.9971,0.00,0.00,-0.18,-3.52,4.69,-15.50
118.875717,-0.0693,-0.0361,0.9971,0.00,0.00,-0.18,-3.52,4.69,-15.50
118.935796,-0.0693,-0.0356,0.9980,-0.06,0.00,-0.18,-3.52,4.69,-15.50
118.935796,-0.0693,-0.0361,0.9980,0.00,0.00,-0.18,-3.52,4.69,-15.50
118.965020,-0.0693,-0.0352,0.9980,0.00,0.00,-0.18,-3.52,4.69,-15.50
118.965020,-0.0688,-0.0352,0.9976,0.00,0.00,-0.24,-3.52,4.69,-15.50
118.995771,-0.0688,-0.0356,0.9980,-0.06,0.00,-0.12,-3.52,4.69,-15.50
118.995771,-0.0693,-0.0361,0.9976,-0.06,0.00,-0.12,-3.52,4.69,-15.50
119.055990,-0.0703,-0.0356,0.9990,0.00,0.00,-0.12,-3.52,4.69,-15.50
119.055990,-0.0698,-0.0356,0.9976,0.00,0.00,-0.18,-3.52,4.69,-15.50
119.085048,-0.0698,-0.0352,0.9980,0.00,0.00,-0.24,-3.52,4.69,-15.50
119.085048,-0.0698,-0.0347,0.9976,-0.06,0.00,-0.12,-3.52,4.69,-15.50
119.145945,-0.0698,-0.0352,0.9980,-0.06,0.00,-0.24,-3.51,4.69,-15.50
119.145945,-0.0698,-0.0347,0.9976,0.00,0.00,-0.18,-3.51,4.69,-15.50
119.175039,-0.0693,-0.0356,0.9985,0.00,0.00,-0.12,-3.51,4.69,-15.50
119.175039,-0.0688,-0.0352,0.9966,0.00,0.00,-0.06,-3.51,4.69,-15.50
119.205824,-0.0693,-0.0356,0.9971,0.00,0.00,-0.18,-3.51,4.69,-15.50
119.205824,-0.0693,-0.0352,0.9980,0.00,0.00,-0.18,-3.51,4.69,-15.50
119.265823,-0.0693,-0.0352,0.9971,0.00,0.00,-0.12,-3.51,4.69,-15.50
119.265823,-0.0698,-0.0347,0.9976,-0.06,0.00,-0.18,-3.51,4.69,-15.50
119.295173,-0.0693,-0.0352,0.9976,0.00,0.00,-0.18,-3.51,4.69,-15.50
119.295173,-0.0693,-0.0356,0.9976,-0.06,0.06,-0.12,-3.51,4.69,-15.50
119.325766,-0.0703,-0.0361,0.9976,0.00,0.00,-0.12,-3.51,4.69,-15.50
119.325766,-0.0698,-0.0356,0.9980,0.00,0.00,-0.18,-3.51,4.70,-15.50
119.385810,-0.0688,-0.0356,0.9976,0.00,0.00,-0.18,-3.51,4.70,-15.50
119.385810,-0.0698,-0.0352,0.9976,0.00,0.00,-0.18,-3.51,4.70,-15.50
119.415376,-0.0698,-0.0342,0.9985,-0.06,0.00,-0.12,-3.51,4.70,-15.50
119.415376,-0.0693,-0.0352,0.9976,0.00,0.06,-0.18,-3.51,4.70,-15.50
119.445830,-0.0693,-0.0356,0.9980,0.00,0.00,-0.12,-3.51,4.70,-15.50
119.445830,-0.0698,-0.0347,0.9971,0.00,0.00,-0.12,-3.51,4.70,-15.50
119.505848,-0.0698,-0.0361,0.9980,0.00,0.00,-0.12,-3.51,4.70,-15.50
119.505848,-0.0698,-0.0356,0.9961,0.00,0.00,-0.12,-3.51,4.70,-15.50
119.535312,-0.0698,-0.0356,0.9971,0.00,0.00,-0.18,-3.51,4.70,-15.50
119.535312,-0.0693,-0.0356,0.9976,-0.06,0.00,-0.12,-3.51,4.70,-15.50
119.565904,-0.0703,-0.0352,0.9980,0.00,0.00,-0.18,-3.51,4.70,-15.50
119.565904,-0.0693,-0.0356,0.9971,-0.06,0.00,-0.12,-3.51,4.70,-15.50
119.625824,-0.0688,-0.0347,0.9976,-0.06,0.00,-0.12,-3.51,4.70,-15.50
119.625824,-0.0693,-0.0352,0.9976,0.00,0.00,-0.12,-3.51,4.70,-15.50
119.655028,-0.0693,-0.0352,0.9971,0.00,0.00,-0.12,-3.51,4.70,-15.50
119.655028,-0.0693,-0.0352,0.9976,0.00,0.00,-0.18,-3.51,4.70,-15.50
119.685785,-0.0698,-0.0352,0.9971,0.00,0.00,-0.06,-3.51,4.70,-15.50
119.685785,-0.0698,-0.0352,0.9980,0.00,0.00,-0.06,-3.51,4.70,-15.50
119.745792,-0.0698,-0.0352,0.9971,0.00,0.00,-0.12,-3.51,4.70,-15.50
119.745792,-0.0698,-0.0347,0.9956,0.00,0.00,-0.18,-3.51,4.70,-15.50
119.775852,-0.0698,-0.0356,0.9961,0.00,0.00,-0.12,-3.51,4.70,-15.50
119.775852,-0.0693,-0.0347,0.9976,-0.06,0.00,-0.12,-3.51,4.70,-15.50
119.806195,-0.0693,-0.0352,0.9961,0.00,0.00,-0.12,-3.51,4.71,-15.50
119.806195,-0.0693,-0.0361,0.9980,0.00,0.00,-0.12,-3.51,4.71,-15.50
119.865833,-0.0703,-0.0356,0.9976,0.00,0.00,-0.18,-3.51,4.71,-15.50
119.865833,-0.0698,-0.0356,0.9976,0.00,0.00,-0.18,-3.51,4.71,-15.50
119.895028,-0.0703,-0.0361,0.9985,0.00,0.00,-0.18,-3.51,4.71,-15.50
119.895028,-0.0698,-0.0352,0.9980,0.00,0.00,-0.12,-3.51,4.71,-15.50
119.925800,-0.0693,-0.0356,0.9980,0.00,0.00,-0.18,-3.51,4.71,-15.50
119.925800,-0.0698,-0.0361,0.9971,-0.06,0.00,-0.12,-3.51,4.71,-15.50
119.985813,-0.0698,-0.0352,0.9980,0.00,0.00,-0.12,-3.51,4.71,-15.50
119.985813,-0.0698,-0.0352,0.9971,0.00,0.00,-0.12,-3.51,4.71,-15.50
120.015399,-0.0698,-0.0356,0.9966,0.00,0.00,-0.18,-3.51,4.71,-15.50
120.015399,-0.0698,-0.0356,0.9971,0.00,0.00,-0.12,-3.51,4.71,-15.50
120.045987,-0.0688,-0.0356,0.9971,0.00,0.00,-0.24,-3.51,4.71,-15.50
120.045987,-0.0703,-0.0366,0.9976,0.00,0.00,-0.18,-3.51,4.71,-15.50
120.105837,-0.0703,-0.0352,0.9976,0.00,0.00,-0.18,-3.51,4.71,-15.50
120.105837,-0.0703,-0.0352,0.9980,0.00,0.00,-0.18,-3.51,4.71,-15.50
120.135164,-0.0698,-0.0356,0.9976,0.00,0.00,-0.24,-3.51,4.71,-15.50
120.135164,-0.0703,-0.0352,0.9980,0.00,0.00,-0.18,-3.51,4.71,-15.50
120.165781,-0.0693,-0.0352,0.9971,0.00,0.00,-0.18,-3.51,4.71,-15.50
120.165781,-0.0698,-0.0347,0.9976,-0.06,0.00,-0.18,-3.51,4.71,-15.50
120.225851,-0.0698,-0.0356,0.9980,0.00,0.00,-0.12,-3.51,4.71,-15.50
120.225851,-0.0698,-0.0361,0.9971,0.00,0.00,-0.12,-3.51,4.71,-15.50
120.255080,-0.0693,-0.0356,0.9976,0.00,0.00,-0.18,-3.51,4.71,-15.50
120.255080,-0.0688,-0.0356,0.9976,0.00,0.00,-0.18,-3.51,4.71,-15.50
120.285168,-0.0703,-0.0356,0.9971,-0.06,0.00,-0.12,-3.51,4.71,-15.50
120.285168,-0.0703,-0.0352,0.9980,0.00,0.00,-0.12,-3.51,4.72,-15.50
120.345897,-0.0698,-0.0356,0.9985,-0.06,0.00,-0.12,-3.51,4.72,-15.50
120.345897,-0.0698,-0.0347,0.9971,0.00,0.00,-0.18,-3.51,4.72,-15.50
120.375055,-0.0693,-0.0356,0.9976,0.00,0.00,-0.18,-3.51,4.72,-15.50
120.375055,-0.0698,-0.0352,0.9985,0.00,0.00,-0.18,-3.51,4.72,-15.50
120.405847,-0.0698,-0.0352,0.9985,-0.06,0.00,-0.12,-3.51,4.72,-15.50
120.405847,-0.0698,-0.0352,0.9966,-0.06,0.00,-0.12,-3.51,4.72,-15.50
120.466020,-0.0703,-0.0361,0.9976,-0.06,0.00,-0.12,-3.51,4.72,-15.50
120.466020,-0.0703,-0.0356,0.9976,0.00,0.00,-0.12,-3.51,4.72,-15.50
120.519639,-0.0698,-0.0361,0.9966,0.00,0.00,-0.18,-3.51,4.72,-15.50
120.519639,-0.0698,-0.0347,0.9971,0.00,0.00,-0.18,-3.51,4.72,-15.50
120.557404,-0.0698,-0.0361,0.9961,-0.06,0.00,-0.12,-3.51,4.72,-15.50
120.557404,-0.0698,-0.0356,0.9976,0.00,0.00,-0.12,-3.51,4.72,-15.50
120.585971,-0.0698,-0.0361,0.9976,0.00,0.00,-0.18,-3.51,4.72,-15.50
120.585971,-0.0693,-0.0356,0.9980,0.00,0.00,-0.18,-3.51,4.72,-15.50
120.618113,-0.0708,-0.0352,0.9976,0.00,0.06,-0.18,-3.51,4.72,-15.50
120.618113,-0.0698,-0.0352,0.9976,0.00,0.00,-0.12,-3.51,4.72,-15.50
120.675823,-0.0698,-0.0361,0.9971,-0.06,0.00,-0.18,-3.51,4.72,-15.50
120.675823,-0.0688,-0.0356,0.9971,0.00,0.00,-0.18,-3.51,4.72,-15.50
120.707915,-0.0698,-0.0352,0.9966,0.00,0.00,-0.12,-3.51,4.72,-15.50
120.707915,-0.0698,-0.0347,0.9971,0.00,0.00,-0.24,-3.51,4.72,-15.50
120.737796,-0.0698,-0.0352,0.9971,-0.06,0.00,-0.12,-3.51,4.72,-15.50
120.737796,-0.0698,-0.0352,0.9976,0.00,0.00,-0.18,-3.51,4.72,-15.50
120.795906,-0.0693,-0.0356,0.9961,0.00,0.00,-0.12,-3.51,4.72,-15.50
120.795906,-0.0693,-0.0361,0.9971,-0.06,0.00,-0.18,-3.51,4.72,-15.50
120.825148,-0.0703,-0.0356,0.9966,0.00,0.06,-0.18,-3.51,4.72,-15.50
120.825148,-0.0698,-0.0352,0.9971,-0.06,0.00,-0.12,-3.51,4.72,-15.50
120.855852,-0.0703,-0.0356,0.9980,-0.06,0.00,-0.12,-3.51,4.73,-15.50
120.855852,-0.0703,-0.0352,0.9985,-0.06,0.00,-0.12,-3.51,4.73,-15.50
120.916274,-0.0693,-0.0356,0.9976,-0.06,0.00,-0.18,-3.51,4.73,-15.50
120.916274,-0.0698,-0.0352,0.9976,0.00,0.00,-0.18,-3.51,4.73,-15.50
120.945063,-0.0708,-0.0356,0.9976,0.00,0.00,-0.24,-3.51,4.73,-15.50
120.945063,-0.0693,-0.0361,0.9971,0.00,0.00,-0.18,-3.51,4.73,-15.50
120.975818,-0.0693,-0.0361,0.9971,0.00,0.00,-0.12,-3.51,4.73,-15.50
120.975818,-0.0698,-0.0361,0.9971,-0.06,0.00,-0.12,-3.51,4.73,-15.50
121.036032,-0.0703,-0.0352,0.9976,0.00,0.00,-0.18,-3.51,4.73,-15.50
121.036032,-0.0698,-0.0356,0.9971,-0.06,0.00,-0.18,-3.51,4.73,-15.50
121.065247,-0.0698,-0.0356,0.9976,0.00,0.00,-0.12,-3.51,4.73,-15.50
121.065247,-0.0698,-0.0352,0.9980,0.00,0.00,-0.06,-3.51,4.73,-15.50
121.096269,-0.0703,-0.0356,0.9971,0.00,0.00,-0.18,-3.51,4.73,-15.50
121.096269,-0.0693,-0.0347,0.9966,0.00,0.00,-0.18,-3.51,4.73,-15.50
121.155879,-0.0693,-0.0352,0.9985,0.00,0.00,-0.18,-3.51,4.73,-15.50
121.155879,-0.0693,-0.0356,0.9976,0.00,0.00,-0.18,-3.51,4.74,-15.50
121.185086,-0.0708,-0.0356,0.9980,0.00,0.00,-0.18,-3.51,4.74,-15.50
121.185086,-0.0698,-0.0347,0.9971,0.00,0.00,-0.18,-3.51,4.74,-15.50
121.216121,-0.0693,-0.0352,0.9985,0.00,0.00,-0.12,-3.51,4.74,-15.50
121.216121,-0.0698,-0.0347,0.9980,-0.06,0.00,-0.18,-3.51,4.74,-15.50
121.275187,-0.0698,-0.0352,0.9980,-0.06,0.00,-0.18,-3.50,4.74,-15.50
121.275187,-0.0698,-0.0352,0.9971,0.00,0.00,-0.18,-3.50,4.74,-15.50
121.305912,-0.0703,-0.0361,0.9971,0.00,0.00,-0.12,-3.50,4.74,-15.50
121.305912,-0.0703,-0.0361,0.9976,-0.06,0.00,-0.24,-3.50,4.74,-15.50
121.335875,-0.0698,-0.0347,0.9971,0.00,0.00,-0.18,-3.50,4.74,-15.50
121.335875,-0.0703,-0.0356,0.9966,0.00,0.00,-0.12,-3.50,4.74,-15.50
121.395843,-0.0698,-0.0356,0.9976,-0.06,0.06,-0.18,-3.50,4.74,-15.50
121.395843,-0.0698,-0.0352,0.9976,-0.06,0.00,-0.18,-3.50,4.74,-15.50
121.425189,-0.0698,-0.0361,0.9971,0.00,0.00,-0.18,-3.50,4.74,-15.50
121.425189,-0.0703,-0.0352,0.9966,-0.06,0.00,-0.18,-3.50,4.74,-15.50
121.456076,-0.0693,-0.0356,0.9961,-0.06,0.00,-0.12,-3.50,4.74,-15.50
121.456076,-0.0703,-0.0356,0.9976,-0.06,0.00,-0.18,-3.50,4.74,-15.50
121.516181,-0.0698,-0.0356,0.9976,-0.06,0.00,-0.12,-3.50,4.74,-15.50
121.516181,-0.0698,-0.0356,0.9980,-0.06,0.00,-0.18,-3.50,4.74,-15.50
121.545807,-0.0698,-0.0356,0.9976,0.00,0.06,-0.18,-3.50,4.74,-15.50
121.545807,-0.0698,-0.0352,0.9976,0.00,0.00,-0.18,-3.50,4.74,-15.50
121.575191,-0.0698,-0.0352,0.9985,0.00,0.00,-0.12,-3.50,4.74,-15.50
121.575191,-0.0698,-0.0352,0.9976,-0.06,0.00,-0.18,-3.50,4.74,-15.50
121.635927,-0.0698,-0.0347,0.9990,0.00,0.00,-0.18,-3.50,4.74,-15.50
121.635927,-0.0703,-0.0356,0.9980,0.00,0.00,-0.12,-3.50,4.74,-15.50
121.665114,-0.0703,-0.0361,0.9980,-0.06,0.00,-0.18,-3.50,4.74,-15.50
121.665114,-0.0703,-0.0352,0.9980,0.00,0.00,-0.24,-3.50,4.74,-15.50
121.695793,-0.0703,-0.0352,0.9980,-0.06,0.00,-0.18,-3.50,4.74,-15.50
121.695793,-0.0688,-0.0356,0.9966,0.00,0.06,-0.18,-3.50,4.74,-15.50
121.756019,-0.0703,-0.0352,0.9976,0.00,0.00,-0.18,-3.50,4.74,-15.50
121.756019,-0.0698,-0.0352,0.9985,0.00,0.00,-0.18,-3.50,4.74,-15.50
121.785148,-0.0698,-0.0356,0.9980,0.00,0.00,-0.18,-3.50,4.74,-15.50
121.785148,-0.0703,-0.0352,0.9976,-0.06,0.06,-0.18,-3.50,4.74,-15.50
121.816143,-0.0703,-0.0352,0.9985,0.00,0.00,-0.18,-3.50,4.75,-15.50
121.816143,-0.0703,-0.0352,0.9971,-0.06,0.00,-0.12,-3.50,4.75,-15.50
121.875875,-0.0693,-0.0347,0.9971,0.00,0.00,-0.18,-3.50,4.75,-15.50
121.875875,-0.0703,-0.0361,0.9976,-0.06,0.00,-0.12,-3.50,4.75,-15.50
121.905050,-0.0693,-0.0352,0.9980,-0.06,0.00,-0.18,-3.50,4.75,-15.50
121.905050,-0.0703,-0.0352,0.9971,-0.06,0.00,-0.18,-3.50,4.75,-15.50
121.965861,-0.0703,-0.0347,0.9980,0.00,0.00,-0.18,-3.50,4.75,-15.50
121.965861,-0.0703,-0.0361,0.9966,0.00,0.00,-0.12,-3.50,4.75,-15.50
121.995065,-0.0698,-0.0361,0.9971,0.00,0.00,-0.18,-3.50,4.75,-15.50
121.995065,-0.0703,-0.0352,0.9976,0.00,0.00,-0.24,-3.50,4.75,-15.50
122.027686,-0.0703,-0.0356,0.9971,0.00,0.00,-0.18,-3.50,4.75,-15.50
122.027686,-0.0698,-0.0356,0.9976,0.00,0.00,-0.18,-3.50,4.75,-15.50
122.086092,-0.0708,-0.0352,0.9976,0.00,0.00,-0.12,-3.50,4.75,-15.50
122.086092,-0.0698,-0.0352,0.9971,-0.06,0.00,-0.18,-3.50,4.75,-15.50
122.115424,-0.0703,-0.0356,0.9976,0.00,0.00,-0.18,-3.50,4.75,-15.50
122.115424,-0.0698,-0.0356,0.9985,-0.06,0.00,-0.12,-3.50,4.75,-15.50
122.146012,-0.0708,-0.0347,0.9976,0.00,0.00,-0.24,-3.50,4.75,-15.50
122.146012,-0.0703,-0.0356,0.9976,0.00,0.00,-0.18,-3.50,4.75,-15.50
122.206007,-0.0693,-0.0356,0.9966,-0.06,0.00,-0.18,-3.50,4.75,-15.50
122.206007,-0.0693,-0.0352,0.9976,-0.06,0.00,-0.12,-3.50,4.75,-15.50
122.235182,-0.0698,-0.0356,0.9976,0.00,0.00,-0.12,-3.50,4.75,-15.50
122.235182,-0.0703,-0.0352,0.9985,-0.06,0.00,-0.18,-3.50,4.75,-15.50
122.265917,-0.0698,-0.0356,0.9980,0.00,0.00,-0.18,-3.50,4.75,-15.50
122.265917,-0.0693,-0.0352,0.9985,0.00,0.00,-0.18,-3.50,4.75,-15.50
122.325918,-0.0693,-0.0352,0.9976,0.00,0.00,-0.18,-3.50,4.75,-15.50
122.325918,-0.0698,-0.0356,0.9976,-0.06,0.06,-0.12,-3.50,4.75,-15.50
122.356269,-0.0688,-0.0356,0.9980,0.00,0.06,-0.18,-3.50,4.75,-15.50
122.356269,-0.0698,-0.0347,0.9980,-0.06,0.00,-0.18,-3.50,4.75,-15.50
122.385609,-0.0693,-0.0356,0.9966,0.00,0.00,-0.18,-3.50,4.75,-15.50
122.385609,-0.0698,-0.0352,0.9980,-0.06,0.00,-0.18,-3.50,4.75,-15.50
122.445972,-0.0703,-0.0352,0.9985,0.00,0.00,-0.18,-3.50,4.75,-15.50
122.445972,-0.0698,-0.0347,0.9966,0.00,0.00,-0.18,-3.50,4.75,-15.50
122.475126,-0.0698,-0.0361,0.9966,0.00,0.00,-0.18,-3.50,4.75,-15.50
122.475126,-0.0708,-0.0352,0.9980,0.00,0.00,-0.12,-3.50,4.75,-15.50
122.505813,-0.0698,-0.0356,0.9976,-0.06,0.00,-0.12,-3.50,4.75,-15.50
122.505813,-0.0703,-0.0356,0.9971,0.00,0.06,-0.24,-3.50,4.75,-15.50
122.565991,-0.0703,-0.0356,0.9976,0.00,0.00,-0.24,-3.50,4.75,-15.50
122.565991,-0.0698,-0.0356,0.9976,0.00,0.00,-0.18,-3.50,4.75,-15.50
122.595145,-0.0708,-0.0352,0.9976,-0.06,0.00,-0.12,-3.50,4.76,-15.50
122.595145,-0.0698,-0.0352,0.9980,-0.06,0.00,-0.18,-3.50,4.76,-15.50
122.626331,-0.0698,-0.0352,0.9985,0.00,0.00,-0.18,-3.50,4.76,-15.50
122.626331,-0.0708,-0.0347,0.9980,0.00,0.00,-0.12,-3.50,4.76,-15.50
122.685867,-0.0708,-0.0352,0.9971,-0.06,0.00,-0.18,-3.50,4.76,-15.50
122.685867,-0.0693,-0.0352,0.9976,-0.06,0.00,-0.24,-3.50,4.76,-15.50
122.715401,-0.0708,-0.0356,0.9976,0.00,0.06,-0.18,-3.50,4.76,-15.50
122.715401,-0.0698,-0.0356,0.9976,0.00,0.00,-0.24,-3.50,4.76,-15.50
122.745094,-0.0703,-0.0352,0.9976,0.00,0.00,-0.24,-3.50,4.76,-15.50
122.745094,-0.0708,-0.0356,0.9980,0.00,0.00,-0.18,-3.50,4.76,-15.50
122.805467,-0.0698,-0.0347,0.9980,-0.06,0.00,-0.18,-3.50,4.76,-15.50
122.805467,-0.0708,-0.0356,0.9990,0.00,0.00,-0.12,-3.50,4.76,-15.50
122.835885,-0.0703,-0.0356,0.9976,0.00,0.00,-0.18,-3.50,4.76,-15.50
122.835885,-0.0703,-0.0352,0.9976,0.00,0.00,-0.12,-3.50,4.76,-15.50
122.865172,-0.0703,-0.0352,0.9980,0.00,0.00,-0.12,-3.50,4.76,-15.50
122.865172,-0.0703,-0.0347,0.9990,-0.06,0.00,-0.12,-3.50,4.76,-15.50
122.925903,-0.0703,-0.0352,0.9980,-0.06,0.00,-0.18,-3.50,4.76,-15.50
122.925903,-0.0698,-0.0347,0.9976,-0.06,0.00,-0.12,-3.50,4.76,-15.50
122.955117,-0.0708,-0.0356,0.9980,0.00,0.00,-0.18,-3.50,4.76,-15.50
122.955117,-0.0703,-0.0347,0.9966,0.00,0.00,-0.18,-3.50,4.76,-15.50
122.985885,-0.0698,-0.0361,0.9995,0.00,0.00,-0.18,-3.50,4.76,-15.50
122.985885,-0.0703,-0.0352,0.9990,0.00,0.00,-0.12,-3.50,4.76,-15.50
123.046089,-0.0708,-0.0352,0.9976,0.00,0.00,-0.18,-3.50,4.76,-15.50
123.046089,-0.0703,-0.0342,0.9976,0.00,0.00,-0.18,-3.50,4.76,-15.50
123.075163,-0.0708,-0.0356,0.9976,0.00,0.06,-0.12,-3.50,4.76,-15.50
123.075163,-0.0713,-0.0356,0.9966,0.00,0.00,-0.12,-3.50,4.76,-15.50
123.105915,-0.0703,-0.0356,0.9980,0.00,0.00,-0.18,-3.50,4.76,-15.50
123.105915,-0.0693,-0.0352,0.9980,-0.06,0.00,-0.18,-3.50,4.76,-15.50
123.165898,-0.0703,-0.0352,0.9980,0.00,0.00,-0.12,-3.50,4.76,-15.50
123.165898,-0.0708,-0.0352,0.9980,-0.06,0.00,-0.12,-3.50,4.76,-15.50
123.195143,-0.0708,-0.0352,0.9980,0.00,0.00,-0.18,-3.50,4.76,-15.50
123.195143,-0.0698,-0.0347,0.9985,0.00,0.00,-0.18,-3.50,4.76,-15.50
123.225899,-0.0703,-0.0356,0.9976,-0.06,0.00,-0.18,-3.50,4.76,-15.50
123.225899,-0.0703,-0.0347,0.9976,0.00,0.00,-0.18,-3.50,4.76,-15.50
123.286053,-0.0703,-0.0347,0.9966,0.00,0.00,-0.18,-3.50,4.76,-15.50
123.286053,-0.0698,-0.0352,0.9980,0.00,0.00,-0.18,-3.50,4.77,-15.50
123.315470,-0.0703,-0.0352,0.9976,-0.06,0.00,-0.06,-3.50,4.77,-15.50
123.315470,-0.0703,-0.0356,0.9980,0.00,0.00,-0.12,-3.50,4.77,-15.50
123.376030,-0.0698,-0.0352,0.9971,0.00,0.00,-0.12,-3.50,4.77,-15.50
123.376030,-0.0708,-0.0352,0.9976,0.00,0.00,-0.12,-3.50,4.77,-15.50
123.405173,-0.0708,-0.0352,0.9976,0.00,0.00,-0.24,-3.50,4.77,-15.50
123.405173,-0.0703,-0.0347,0.9980,-0.06,0.00,-0.24,-3.50,4.77,-15.50
123.435920,-0.0708,-0.0356,0.9976,0.00,0.00,-0.18,-3.50,4.77,-15.50
123.435920,-0.0708,-0.0352,0.9966,-0.06,0.00,-0.18,-3.50,4.77,-15.50
123.495912,-0.0703,-0.0356,0.9980,-0.06,0.00,-0.12,-3.50,4.77,-15.50
123.495912,-0.0698,-0.0352,0.9976,-0.06,0.00,-0.18,-3.50,4.77,-15.50
123.525204,-0.0713,-0.0347,0.9980,0.00,0.00,-0.18,-3.50,4.77,-15.50
123.525204,-0.0703,-0.0356,0.9980,0.00,0.00,-0.18,-3.50,4.77,-15.50
123.555867,-0.0698,-0.0356,0.9976,0.00,0.00,-0.12,-3.50,4.77,-15.50
123.555867,-0.0708,-0.0356,0.9966,0.00,0.00,-0.12,-3.50,4.77,-15.50
123.616304,-0.0703,-0.0356,0.9971,0.00,0.00,-0.12,-3.50,4.77,-15.50
123.616304,-0.0703,-0.0356,0.9985,0.00,0.06,-0.18,-3.50,4.77,-15.50
123.645501,-0.0703,-0.0356,0.9976,0.00,0.00,-0.18,-3.50,4.77,-15.50
123.645501,-0.0708,-0.0356,0.9980,-0.06,0.00,-0.18,-3.50,4.77,-15.50
123.676092,-0.0703,-0.0352,0.9971,0.00,0.00,-0.18,-3.50,4.77,-15.50
123.676092,-0.0708,-0.0352,0.9976,0.00,0.00,-0.12,-3.50,4.77,-15.50
123.735957,-0.0703,-0.0356,0.9971,-0.06,0.00,-0.18,-3.50,4.77,-15.50
123.735957,-0.0698,-0.0347,0.9971,0.00,0.00,-0.18,-3.50,4.77,-15.50
123.765217,-0.0708,-0.0356,0.9971,0.00,0.06,-0.12,-3.50,4.77,-15.50
123.765217,-0.0703,-0.0347,0.9971,0.00,0.00,-0.18,-3.50,4.77,-15.50
123.795930,-0.0713,-0.0352,0.9976,0.00,0.00,-0.12,-3.50,4.77,-15.50
123.795930,-0.0708,-0.0352,0.9980,0.00,0.00,-0.18,-3.50,4.77,-15.50
123.855943,-0.0703,-0.0347,0.9976,0.00,0.00,-0.12,-3.50,4.77,-15.50
123.855943,-0.0708,-0.0356,0.9966,0.00,0.00,-0.18,-3.50,4.77,-15.50
123.885144,-0.0713,-0.0347,0.9961,-0.06,0.00,-0.18,-3.50,4.77,-15.50
123.885144,-0.0703,-0.0347,0.9966,0.00,0.00,-0.18,-3.50,4.77,-15.50
123.916211,-0.0708,-0.0356,0.9980,0.00,0.00,-0.12,-3.50,4.77,-15.50
123.916211,-0.0708,-0.0356,0.9966,-0.06,0.00,-0.12,-3.50,4.77,-15.50
123.976032,-0.0708,-0.0347,0.9961,-0.06,0.00,-0.18,-3.50,4.78,-15.50
123.976032,-0.0698,-0.0352,0.9976,0.00,0.06,-0.18,-3.50,4.78,-15.50
124.005353,-0.0698,-0.0356,0.9971,0.00,0.00,-0.18,-3.50,4.78,-15.50
124.005353,-0.0708,-0.0361,0.9966,0.00,0.06,-0.18,-3.50,4.78,-15.50
124.036120,-0.0698,-0.0356,0.9961,0.00,0.00,-0.18,-3.50,4.78,-15.50
124.036120,-0.0708,-0.0352,0.9971,-0.06,0.00,-0.18,-3.50,4.78,-15.50
124.096172,-0.0703,-0.0356,0.9976,0.00,0.00,-0.18,-3.50,4.78,-15.50
124.096172,-0.0703,-0.0356,0.9980,0.00,0.06,-0.12,-3.50,4.78,-15.50
124.125953,-0.0708,-0.0356,0.9976,0.00,0.06,-0.18,-3.50,4.78,-15.50
124.125953,-0.0703,-0.0352,0.9980,0.00,0.00,-0.18,-3.50,4.78,-15.50
124.157374,-0.0708,-0.0352,0.9985,0.00,0.00,-0.12,-3.50,4.78,-15.50
124.157374,-0.0693,-0.0347,0.9980,-0.06,0.00,-0.24,-3.50,4.78,-15.50
124.216328,-0.0708,-0.0342,0.9980,-0.06,0.00,-0.18,-3.50,4.78,-15.50
124.216328,-0.0703,-0.0347,0.9976,-0.06,0.00,-0.18,-3.50,4.78,-15.50
124.245050,-0.0698,-0.0352,0.9976,0.00,0.00,-0.12,-3.50,4.78,-15.50
124.245050,-0.0703,-0.0352,0.9976,-0.06,0.06,-0.18,-3.50,4.78,-15.50
124.275205,-0.0703,-0.0347,0.9971,-0.06,0.00,-0.18,-3.50,4.78,-15.50
124.275205,-0.0698,-0.0352,0.9966,0.00,0.00,-0.18,-3.50,4.78,-15.50
124.336209,-0.0698,-0.0352,0.9976,0.00,0.00,-0.12,-3.50,4.78,-15.50
124.336209,-0.0703,-0.0352,0.9971,0.00,0.00,-0.06,-3.50,4.78,-15.50
124.365164,-0.0708,-0.0352,0.9990,0.00,0.00,-0.18,-3.50,4.78,-15.50
124.365164,-0.0703,-0.0352,0.9980,0.00,0.00,-0.18,-3.50,4.78,-15.50
124.395823,-0.0708,-0.0356,0.9976,-0.06,0.00,-0.18,-3.50,4.78,-15.50
124.395823,-0.0703,-0.0352,0.9971,-0.06,0.00,-0.12,-3.50,4.78,-15.50
124.456067,-0.0703,-0.0352,0.9980,-0.06,0.00,-0.18,-3.50,4.78,-15.50
124.456067,-0.0703,-0.0347,0.9980,0.00,0.00,-0.24,-3.50,4.78,-15.50
124.485221,-0.0708,-0.0347,0.9980,0.00,0.00,-0.18,-3.50,4.78,-15.50
124.485221,-0.0703,-0.0356,0.9985,-0.06,0.00,-0.18,-3.50,4.78,-15.50
124.516260,-0.0708,-0.0352,0.9990,0.00,0.00,-0.12,-3.50,4.78,-15.50
124.516260,-0.0703,-0.0352,0.9980,-0.06,0.00,-0.12,-3.50,4.78,-15.50
124.577980,-0.0703,-0.0352,0.9976,0.00,0.00,-0.18,-3.50,4.78,-15.50
124.577980,-0.0708,-0.0356,0.9976,-0.06,0.00,-0.12,-3.50,4.78,-15.50
124.608045,-0.0703,-0.0352,0.9976,-0.06,0.00,-0.12,-3.50,4.78,-15.50
124.608045,-0.0708,-0.0356,0.9966,0.00,0.00,-0.18,-3.50,4.78,-15.50
124.636016,-0.0708,-0.0352,0.9980,-0.06,0.00,-0.12,-3.50,4.78,-15.50
124.636016,-0.0703,-0.0356,0.9976,-0.06,0.00,-0.12,-3.50,4.78,-15.50
124.696370,-0.0703,-0.0352,0.9980,-0.06,0.00,-0.12,-3.50,4.78,-15.50
124.696370,-0.0708,-0.0342,0.9976,-0.06,0.00,-0.12,-3.50,4.78,-15.50
124.725204,-0.0703,-0.0352,0.9971,0.00,0.00,-0.18,-3.50,4.78,-15.50
124.725204,-0.0708,-0.0352,0.9980,0.00,0.00,-0.06,-3.50,4.78,-15.50
124.786004,-0.0698,-0.0356,0.9985,-0.06,0.00,-0.12,-3.50,4.78,-15.50
124.786004,-0.0698,-0.0356,0.9971,0.00,0.00,-0.24,-3.50,4.78,-15.50
124.815483,-0.0713,-0.0352,0.9971,-0.06,0.00,-0.12,-3.50,4.78,-15.50
124.815483,-0.0703,-0.0347,0.9976,-0.06,0.00,-0.18,-3.50,4.78,-15.50
124.845960,-0.0708,-0.0347,0.9976,0.00,0.00,-0.12,-3.49,4.79,-15.50
124.845960,-0.0718,-0.0352,0.9971,-0.06,0.00,-0.12,-3.49,4.79,-15.50
124.905963,-0.0703,-0.0347,0.9971,-0.06,0.00,-0.18,-3.49,4.79,-15.50
124.905963,-0.0718,-0.0352,0.9971,0.00,0.00,-0.12,-3.49,4.79,-15.50
124.938266,-0.0708,-0.0352,0.9976,-0.06,0.00,-0.12,-3.49,4.79,-15.50
124.938266,-0.0718,-0.0347,0.9976,0.00,0.00,-0.18,-3.49,4.79,-15.50
124.967899,-0.0713,-0.0352,0.9971,0.00,0.00,-0.12,-3.49,4.79,-15.50
124.967899,-0.0708,-0.0352,0.9971,0.00,0.00,-0.18,-3.49,4.79,-15.50
125.027867,-0.0708,-0.0356,0.9976,-0.06,0.00,-0.18,-3.49,4.79,-15.50
125.027867,-0.0713,-0.0352,0.9971,0.00,0.00,-0.18,-3.49,4.79,-15.50
125.055309,-0.0708,-0.0352,0.9966,0.00,0.00,-0.18,-3.49,4.79,-15.50
125.055309,-0.0703,-0.0356,0.9971,0.00,0.00,-0.18,-3.49,4.79,-15.50
125.085996,-0.0708,-0.0352,0.9980,0.00,0.00,-0.18,-3.49,4.79,-15.50
125.085996,-0.0703,-0.0356,0.9980,-0.06,0.06,-0.12,-3.49,4.79,-15.50
125.145971,-0.0703,-0.0352,0.9971,-0.06,0.00,-0.12,-3.49,4.79,-15.50
125.145971,-0.0703,-0.0352,0.9976,-0.06,0.00,-0.12,-3.49,4.79,-15.50
125.175241,-0.0708,-0.0347,0.9980,0.00,0.00,-0.18,-3.49,4.79,-15.50
125.175241,-0.0703,-0.0352,0.9976,0.00,0.00,-0.18,-3.49,4.80,-15.50
125.205979,-0.0708,-0.0356,0.9976,0.00,0.00,-0.24,-3.49,4.80,-15.50
125.205979,-0.0703,-0.0352,0.9966,0.00,0.00,-0.24,-3.49,4.80,-15.50
125.266018,-0.0703,-0.0352,0.9990,-0.06,0.00,-0.18,-3.49,4.80,-15.50
125.266018,-0.0708,-0.0352,0.9971,0.00,0.00,-0.18,-3.49,4.80,-15.50
125.295243,-0.0708,-0.0352,0.9990,-0.06,0.00,-0.18,-3.49,4.80,-15.50
125.295243,-0.0708,-0.0361,0.9980,-0.06,0.00,-0.18,-3.49,4.80,-15.50
125.325973,-0.0713,-0.0352,0.9985,0.00,0.00,-0.18,-3.49,4.80,-15.50
125.325973,-0.0703,-0.0356,0.9980,-0.06,0.00,-0.18,-3.49,4.80,-15.50
125.385992,-0.0708,-0.0352,0.9976,0.00,0.00,-0.12,-3.49,4.80,-15.50
125.385992,-0.0703,-0.0352,0.9971,-0.06,0.00,-0.12,-3.49,4.80,-15.50
125.415483,-0.0708,-0.0352,0.9980,0.00,0.00,-0.12,-3.49,4.80,-15.50
125.415483,-0.0703,-0.0352,0.9976,-0.06,0.00,-0.18,-3.49,4.80,-15.50
125.446001,-0.0713,-0.0361,0.9971,0.00,0.00,-0.18,-3.49,4.80,-15.50
125.446001,-0.0703,-0.0361,0.9971,-0.06,0.00,-0.18,-3.49,4.80,-15.50
125.506015,-0.0713,-0.0352,0.9985,-0.06,0.00,-0.18,-3.49,4.80,-15.50
125.506015,-0.0703,-0.0352,0.9976,0.00,0.00,-0.12,-3.49,4.80,-15.50
125.535248,-0.0713,-0.0356,0.9980,0.00,0.00,-0.18,-3.49,4.80,-15.50
125.535248,-0.0703,-0.0342,0.9985,0.00,0.00,-0.24,-3.49,4.80,-15.50
125.566186,-0.0698,-0.0342,0.9980,0.00,0.00,-0.18,-3.49,4.80,-15.50
125.566186,-0.0708,-0.0347,0.9971,0.00,0.00,-0.12,-3.49,4.80,-15.50
125.626059,-0.0713,-0.0352,0.9976,0.00,0.00,-0.12,-3.49,4.80,-15.50
125.626059,-0.0713,-0.0356,0.9976,-0.06,0.00,-0.12,-3.49,4.80,-15.50
125.655209,-0.0708,-0.0361,0.9966,-0.06,0.00,-0.18,-3.49,4.80,-15.50
125.655209,-0.0703,-0.0352,0.9961,0.00,0.00,-0.18,-3.49,4.80,-15.50
125.685939,-0.0703,-0.0352,0.9966,0.00,0.00,-0.18,-3.49,4.80,-15.50
125.685939,-0.0708,-0.0356,0.9976,0.00,0.00,-0.12,-3.49,4.80,-15.50
125.745982,-0.0713,-0.0352,0.9985,0.00,0.00,-0.12,-3.49,4.80,-15.50
125.745982,-0.0708,-0.0352,0.9985,0.00,0.00,-0.18,-3.49,4.80,-15.50
125.775240,-0.0713,-0.0347,0.9976,0.00,0.06,-0.12,-3.49,4.80,-15.50
125.775240,-0.0708,-0.0356,0.9971,0.00,0.00,-0.24,-3.49,4.80,-15.50
125.805986,-0.0713,-0.0352,0.9976,0.00,0.06,-0.12,-3.49,4.80,-15.50
125.805986,-0.0713,-0.0356,0.9980,-0.06,0.00,-0.18,-3.49,4.80,-15.50
125.866000,-0.0713,-0.0352,0.9980,0.00,0.00,-0.18,-3.49,4.80,-15.50
125.866000,-0.0718,-0.0356,0.9971,0.00,0.00,-0.18,-3.49,4.80,-15.50
125.895202,-0.0708,-0.0352,0.9971,-0.06,0.00,-0.18,-3.49,4.80,-15.50
125.895202,-0.0708,-0.0352,0.9966,0.00,0.06,-0.18,-3.49,4.80,-15.50
125.925978,-0.0708,-0.0347,0.9980,0.00,0.00,-0.12,-3.49,4.80,-15.50
125.925978,-0.0703,-0.0352,0.9971,0.00,0.00,-0.12,-3.49,4.80,-15.50
125.985994,-0.0713,-0.0356,0.9976,0.00,0.00,-0.06,-3.49,4.80,-15.50
125.985994,-0.0713,-0.0356,0.9980,0.00,0.06,-0.18,-3.49,4.80,-15.50
126.015545,-0.0703,-0.0347,0.9976,0.00,0.00,-0.12,-3.49,4.80,-15.50
126.015545,-0.0708,-0.0347,0.9980,0.00,0.00,-0.18,-3.49,4.80,-15.50
126.045360,-0.0713,-0.0347,0.9980,0.00,0.00,-0.12,-3.49,4.80,-15.50
126.045360,-0.0713,-0.0356,0.9985,-0.06,0.00,-0.18,-3.49,4.81,-15.50
126.106013,-0.0703,-0.0347,0.9976,0.00,0.00,-0.18,-3.49,4.81,-15.50
126.106013,-0.0708,-0.0356,0.9966,0.00,0.00,-0.18,-3.49,4.81,-15.50
126.135215,-0.0703,-0.0356,0.9976,-0.06,0.00,-0.18,-3.49,4.81,-15.50
126.135215,-0.0703,-0.0352,0.9980,0.00,0.00,-0.18,-3.49,4.81,-15.50
126.196399,-0.0713,-0.0352,0.9976,0.00,0.00,-0.18,-3.49,4.81,-15.50
126.196399,-0.0713,-0.0356,0.9976,0.00,0.00,-0.18,-3.49,4.81,-15.50
126.225723,-0.0708,-0.0356,0.9980,0.00,0.00,-0.12,-3.49,4.81,-15.50
126.225723,-0.0713,-0.0347,0.9980,0.00,0.00,-0.18,-3.49,4.81,-15.50
126.256009,-0.0698,-0.0352,0.9976,-0.06,0.00,-0.18,-3.49,4.81,-15.50
126.256009,-0.0708,-0.0352,0.9976,0.00,0.00,-0.24,-3.49,4.81,-15.50
126.316381,-0.0708,-0.0352,0.9971,0.00,0.00,-0.18,-3.49,4.81,-15.50
126.316381,-0.0703,-0.0352,0.9971,0.00,0.00,-0.18,-3.49,4.81,-15.50
126.345158,-0.0708,-0.0347,0.9980,-0.06,0.00,-0.18,-3.49,4.81,-15.50
126.345158,-0.0713,-0.0352,0.9966,-0.06,0.00,-0.12,-3.49,4.81,-15.50
126.376212,-0.0703,-0.0356,0.9976,-0.06,0.00,-0.12,-3.49,4.81,-15.50
126.376212,-0.0708,-0.0356,0.9976,0.00,0.00,-0.12,-3.49,4.81,-15.50
126.436112,-0.0703,-0.0352,0.9976,0.00,0.06,-0.12,-3.49,4.81,-15.50
126.436112,-0.0703,-0.0352,0.9966,0.00,0.00,-0.18,-3.49,4.81,-15.50
126.465360,-0.0708,-0.0361,0.9976,0.00,0.00,-0.18,-3.49,4.81,-15.50
126.465360,-0.0713,-0.0347,0.9976,0.00,0.06,-0.24,-3.49,4.81,-15.50
126.496002,-0.0713,-0.0352,0.9990,0.00,0.00,-0.18,-3.49,4.81,-15.50
126.496002,-0.0713,-0.0352,0.9976,0.00,0.00,-0.18,-3.49,4.81,-15.50
126.556185,-0.0708,-0.0347,0.9971,0.00,0.00,-0.18,-3.49,4.81,-15.50
126.556185,-0.0713,-0.0352,0.9976,0.00,0.00,-0.18,-3.49,4.81,-15.50
126.585323,-0.0713,-0.0342,0.9980,0.00,0.00,-0.18,-3.49,4.81,-15.50
126.585323,-0.0713,-0.0352,0.9976,-0.06,0.00,-0.12,-3.49,4.81,-15.50
126.616278,-0.0703,-0.0352,0.9976,0.00,0.00,-0.18,-3.49,4.81,-15.50
126.616278,-0.0708,-0.0347,0.9966,0.00,0.06,-0.18,-3.49,4.81,-15.50
126.676044,-0.0708,-0.0352,0.9971,0.00,0.00,-0.18,-3.49,4.81,-15.50
126.676044,-0.0713,-0.0352,0.9980,0.00,0.00,-0.24,-3.49,4.81,-15.50
126.705250,-0.0713,-0.0352,0.9976,0.00,0.00,-0.24,-3.49,4.81,-15.50
126.705250,-0.0713,-0.0352,0.9976,-0.06,0.00,-0.12,-3.49,4.81,-15.50
126.735968,-0.0718,-0.0352,0.9971,0.00,0.00,-0.12,-3.49,4.81,-15.50
126.735968,-0.0713,-0.0356,0.9976,0.00,0.00,-0.18,-3.49,4.81,-15.50
126.796068,-0.0703,-0.0352,0.9976,-0.06,0.00,-0.18,-3.49,4.81,-15.50
126.796068,-0.0708,-0.0356,0.9976,0.00,0.00,-0.18,-3.49,4.81,-15.50
126.825247,-0.0703,-0.0352,0.9976,0.00,0.00,-0.18,-3.49,4.81,-15.50
126.825247,-0.0713,-0.0361,0.9976,-0.06,0.00,-0.12,-3.49,4.81,-15.50
126.856125,-0.0708,-0.0352,0.9980,-0.06,0.00,-0.18,-3.49,4.81,-15.50
126.856125,-0.0713,-0.0352,0.9976,0.00,0.00,-0.12,-3.49,4.81,-15.50
126.916527,-0.0703,-0.0347,0.9990,-0.06,0.00,-0.12,-3.49,4.81,-15.50
126.916527,-0.0713,-0.0352,0.9976,0.00,0.06,-0.24,-3.49,4.81,-15.50
126.947945,-0.0703,-0.0347,0.9980,0.00,0.00,-0.24,-3.49,4.81,-15.50
126.947945,-0.0708,-0.0361,0.9976,0.00,0.00,-0.18,-3.49,4.81,-15.50
126.976207,-0.0708,-0.0347,0.9976,-0.06,0.00,-0.18,-3.49,4.81,-15.50
126.976207,-0.0713,-0.0356,0.9976,0.00,0.00,-0.12,-3.49,4.82,-15.50
127.036205,-0.0713,-0.0352,0.9976,-0.06,0.00,-0.12,-3.49,4.82,-15.50
127.036205,-0.0708,-0.0347,0.9980,-0.06,0.00,-0.06,-3.49,4.82,-15.50
127.065408,-0.0703,-0.0356,0.9976,0.00,0.00,-0.12,-3.49,4.82,-15.50
127.065408,-0.0708,-0.0352,0.9980,0.00,0.00,-0.12,-3.49,4.82,-15.50
127.096166,-0.0708,-0.0352,0.9971,0.00,0.00,-0.12,-3.49,4.82,-15.50
127.096166,-0.0703,-0.0347,0.9980,0.00,0.00,-0.12,-3.49,4.82,-15.50
127.156085,-0.0713,-0.0347,0.9976,-0.06,0.00,-0.18,-3.49,4.82,-15.50
127.156085,-0.0703,-0.0352,0.9976,0.00,0.00,-0.12,-3.49,4.82,-15.50
127.185320,-0.0703,-0.0356,0.9985,-0.06,0.00,-0.18,-3.49,4.82,-15.50
127.185320,-0.0708,-0.0347,0.9980,0.00,0.00,-0.12,-3.49,4.82,-15.50
127.216298,-0.0708,-0.0352,0.9980,0.00,0.00,-0.12,-3.49,4.82,-15.50
127.216298,-0.0713,-0.0356,0.9971,-0.06,0.00,-0.18,-3.49,4.82,-15.50
127.276084,-0.0708,-0.0347,0.9976,-0.06,0.00,-0.06,-3.49,4.82,-15.50
127.276084,-0.0703,-0.0352,0.9980,0.00,0.00,-0.18,-3.49,4.82,-15.50
127.306182,-0.0713,-0.0352,0.9980,0.00,0.00,-0.18,-3.49,4.82,-15.50
127.306182,-0.0703,-0.0361,0.9976,0.00,0.00,-0.18,-3.49,4.82,-15.50
127.336039,-0.0698,-0.0356,0.9976,0.00,0.00,-0.18,-3.49,4.82,-15.50
127.336039,-0.0708,-0.0347,0.9980,0.00,0.06,-0.24,-3.49,4.82,-15.50
127.396062,-0.0703,-0.0352,0.9976,-0.06,0.00,-0.18,-3.49,4.82,-15.50
127.396062,-0.0713,-0.0352,0.9971,0.00,0.00,-0.18,-3.49,4.82,-15.50
127.425271,-0.0708,-0.0356,0.9971,0.00,0.00,-0.18,-3.49,4.82,-15.50
127.425271,-0.0708,-0.0356,0.9971,0.00,0.00,-0.18,-3.49,4.82,-15.50
127.456066,-0.0703,-0.0352,0.9976,0.00,0.00,-0.12,-3.49,4.82,-15.50
127.456066,-0.0708,-0.0352,0.9971,0.00,0.06,-0.12,-3.49,4.82,-15.50
127.516506,-0.0703,-0.0347,0.9971,-0.06,0.00,-0.18,-3.49,4.82,-15.50
127.516506,-0.0708,-0.0361,0.9976,0.00,0.00,-0.12,-3.49,4.82,-15.50
127.545563,-0.0713,-0.0352,0.9985,-0.06,0.00,-0.24,-3.49,4.82,-15.50
127.545563,-0.0708,-0.0356,0.9985,0.00,0.00,-0.18,-3.49,4.82,-15.50
127.606225,-0.0708,-0.0347,0.9971,0.00,0.00,-0.18,-3.49,4.82,-15.50
127.606225,-0.0713,-0.0352,0.9976,-0.06,0.00,-0.18,-3.49,4.82,-15.50
127.635525,-0.0703,-0.0347,0.9976,0.00,0.00,-0.18,-3.49,4.82,-15.50
127.635525,-0.0708,-0.0347,0.9976,0.00,0.00,-0.18,-3.49,4.82,-15.50
127.666152,-0.0703,-0.0347,0.9976,-0.06,0.00,-0.18,-3.49,4.82,-15.50
127.666152,-0.0703,-0.0347,0.9980,0.00,0.00,-0.24,-3.49,4.82,-15.50
127.726071,-0.0718,-0.0347,0.9956,0.00,0.00,-0.18,-3.49,4.82,-15.50
127.726071,-0.0713,-0.0356,0.9971,0.00,0.00,-0.18,-3.49,4.82,-15.50
127.755261,-0.0703,-0.0352,0.9971,0.00,0.00,-0.18,-3.49,4.82,-15.50
127.755261,-0.0698,-0.0356,0.9971,-0.06,0.00,-0.18,-3.49,4.82,-15.50
127.786033,-0.0703,-0.0361,0.9976,0.00,0.06,-0.12,-3.49,4.82,-15.50
127.786033,-0.0713,-0.0356,0.9966,0.00,0.00,-0.12,-3.49,4.82,-15.50
127.846181,-0.0713,-0.0356,0.9980,-0.06,0.00,-0.12,-3.49,4.82,-15.50
127.846181,-0.0713,-0.0352,0.9980,0.00,0.06,-0.18,-3.49,4.82,-15.50
127.875301,-0.0713,-0.0352,0.9976,0.00,0.00,-0.12,-3.49,4.82,-15.50
127.875301,-0.0713,-0.0356,0.9976,0.00,0.00,-0.18,-3.49,4.82,-15.50
127.906093,-0.0708,-0.0352,0.9961,0.00,0.00,-0.18,-3.49,4.82,-15.50
127.906093,-0.0703,-0.0356,0.9971,-0.06,0.00,-0.18,-3.49,4.82,-15.50
127.966114,-0.0713,-0.0361,0.9966,-0.06,0.00,-0.12,-3.49,4.82,-15.50
127.966114,-0.0708,-0.0352,0.9980,0.00,0.00,-0.12,-3.49,4.82,-15.50
127.995313,-0.0708,-0.0352,0.9971,-0.06,0.00,-0.12,-3.49,4.82,-15.50
127.995313,-0.0713,-0.0356,0.9966,0.00,0.00,-0.12,-3.49,4.82,-15.50
128.027795,-0.0708,-0.0342,0.9971,-0.06,0.06,-0.12,-3.49,4.82,-15.50
128.027795,-0.0708,-0.0352,0.9966,-0.06,0.00,-0.12,-3.49,4.82,-15.50
128.086244,-0.0698,-0.0352,0.9971,0.00,0.00,-0.18,-3.49,4.82,-15.50
128.086244,-0.0708,-0.0352,0.9961,0.00,0.00,-0.12,-3.49,4.82,-15.50
128.116368,-0.0708,-0.0347,0.9971,-0.06,0.00,-0.12,-3.49,4.82,-15.50
128.116368,-0.0698,-0.0342,0.9966,0.00,0.00,-0.18,-3.49,4.82,-15.50
128.145265,-0.0703,-0.0356,0.9976,0.00,0.00,-0.18,-3.49,4.82,-15.50
128.145265,-0.0713,-0.0352,0.9971,0.00,0.00,-0.18,-3.49,4.82,-15.50
128.206082,-0.0703,-0.0347,0.9961,0.00,0.00,-0.12,-3.49,4.82,-15.50
128.206082,-0.0703,-0.0356,0.9966,-0.06,0.00,-0.18,-3.49,4.82,-15.50
128.235272,-0.0713,-0.0337,0.9966,0.00,0.00,-0.18,-3.49,4.82,-15.50
128.235272,-0.0703,-0.0352,0.9971,0.00,0.00,-0.18,-3.49,4.82,-15.50
128.266109,-0.0703,-0.0356,0.9976,-0.06,0.00,-0.18,-3.49,4.82,-15.50
128.266109,-0.0713,-0.0347,0.9961,-0.06,0.00,-0.18,-3.49,4.82,-15.50
128.326115,-0.0708,-0.0347,0.9971,0.00,0.00,-0.18,-3.49,4.82,-15.50
128.326115,-0.0703,-0.0356,0.9961,-0.06,0.00,-0.18,-3.49,4.82,-15.50
128.355315,-0.0708,-0.0352,0.9966,0.00,0.00,-0.24,-3.49,4.82,-15.50
128.355315,-0.0708,-0.0347,0.9961,-0.06,0.06,-0.18,-3.49,4.82,-15.50
128.386086,-0.0708,-0.0347,0.9961,0.00,0.00,-0.12,-3.49,4.82,-15.50
128.386086,-0.0698,-0.0347,0.9971,0.00,0.00,-0.12,-3.49,4.82,-15.50
128.446122,-0.0708,-0.0356,0.9976,0.00,0.00,-0.12,-3.49,4.82,-15.50
128.446122,-0.0698,-0.0352,0.9966,-0.06,0.00,-0.18,-3.49,4.82,-15.50
128.475301,-0.0703,-0.0347,0.9966,0.00,0.00,-0.06,-3.49,4.82,-15.50
128.475301,-0.0708,-0.0352,0.9966,0.00,0.00,-0.18,-3.49,4.82,-15.50
128.506095,-0.0703,-0.0347,0.9966,0.00,0.06,-0.18,-3.49,4.82,-15.50
128.506095,-0.0713,-0.0347,0.9966,0.00,0.00,-0.18,-3.49,4.82,-15.50
128.566160,-0.0713,-0.0347,0.9971,0.00,0.00,-0.18,-3.49,4.82,-15.50
128.566160,-0.0693,-0.0347,0.9976,0.00,0.00,-0.18,-3.49,4.82,-15.50
128.595476,-0.0708,-0.0347,0.9971,-0.06,0.00,-0.18,-3.49,4.82,-15.50
128.595476,-0.0713,-0.0352,0.9971,0.00,0.00,-0.18,-3.49,4.82,-15.50
128.626090,-0.0708,-0.0361,0.9976,0.00,0.00,-0.18,-3.49,4.82,-15.50
128.626090,-0.0703,-0.0356,0.9980,-0.06,0.00,-0.18,-3.49,4.82,-15.50
128.686244,-0.0723,-0.0347,0.9971,0.00,0.00,-0.06,-3.49,4.82,-15.50
128.686244,-0.0708,-0.0347,0.9971,0.00,0.06,-0.24,-3.49,4.82,-15.50
128.715661,-0.0713,-0.0352,0.9985,0.00,0.00,-0.18,-3.49,4.82,-15.50
128.715661,-0.0708,-0.0347,0.9976,0.00,0.00,-0.12,-3.49,4.82,-15.50
128.746117,-0.0698,-0.0347,0.9971,-0.06,0.00,-0.18,-3.49,4.83,-15.50
128.746117,-0.0708,-0.0352,0.9971,-0.06,0.00,-0.12,-3.49,4.83,-15.50
128.806151,-0.0708,-0.0352,0.9976,-0.06,0.00,-0.12,-3.49,4.83,-15.50
128.806151,-0.0713,-0.0347,0.9976,-0.06,0.00,-0.12,-3.49,4.83,-15.50
128.835345,-0.0718,-0.0352,0.9976,-0.06,0.00,-0.18,-3.49,4.83,-15.50
128.835345,-0.0703,-0.0352,0.9971,-0.06,0.00,-0.12,-3.49,4.83,-15.50
128.866019,-0.0708,-0.0352,0.9976,0.00,0.00,-0.12,-3.49,4.83,-15.50
128.866019,-0.0713,-0.0352,0.9976,0.00,0.00,-0.18,-3.49,4.83,-15.50
128.926176,-0.0708,-0.0356,0.9980,0.00,0.00,-0.18,-3.49,4.83,-15.50
128.926176,-0.0698,-0.0356,0.9980,-0.06,0.00,-0.18,-3.49,4.83,-15.50
128.955351,-0.0708,-0.0347,0.9966,0.00,0.00,-0.18,-3.49,4.83,-15.50
128.955351,-0.0703,-0.0356,0.9971,-0.06,0.00,-0.18,-3.49,4.83,-15.50
129.016464,-0.0708,-0.0352,0.9971,-0.06,0.00,-0.18,-3.49,4.83,-15.50
129.016464,-0.0713,-0.0347,0.9971,-0.06,0.00,-0.18,-3.49,4.83,-15.50
129.045567,-0.0708,-0.0352,0.9966,0.00,0.00,-0.12,-3.49,4.83,-15.50
129.045567,-0.0713,-0.0356,0.9966,0.00,0.00,-0.18,-3.49,4.83,-15.50
129.076149,-0.0708,-0.0352,0.9966,0.00,0.00,-0.18,-3.49,4.83,-15.50
129.076149,-0.0708,-0.0347,0.9971,-0.06,0.00,-0.18,-3.49,4.83,-15.50
129.136139,-0.0703,-0.0352,0.9976,-0.06,0.00,-0.12,-3.49,4.83,-15.50
129.136139,-0.0713,-0.0352,0.9971,0.00,0.00,-0.18,-3.49,4.83,-15.50
129.165334,-0.0708,-0.0352,0.9966,0.00,0.00,-0.12,-3.49,4.83,-15.50
129.165334,-0.0708,-0.0352,0.9971,0.00,0.00,-0.12,-3.49,4.83,-15.50
129.196196,-0.0708,-0.0347,0.9976,0.00,0.00,-0.18,-3.49,4.83,-15.50
129.196196,-0.0713,-0.0361,0.9980,0.00,0.00,-0.12,-3.49,4.83,-15.50
129.256274,-0.0713,-0.0352,0.9971,0.00,0.00,-0.12,-3.49,4.83,-15.50
129.256274,-0.0713,-0.0356,0.9971,-0.06,0.00,-0.18,-3.49,4.83,-15.50
129.286200,-0.0713,-0.0347,0.9976,-0.12,0.00,-0.18,-3.49,4.83,-15.50
129.286200,-0.0718,-0.0352,0.9976,-0.06,0.00,-0.18,-3.49,4.83,-15.50
129.316430,-0.0708,-0.0347,0.9980,-0.06,0.00,-0.18,-3.49,4.83,-15.50
129.316430,-0.0708,-0.0352,0.9971,0.00,0.00,-0.12,-3.49,4.83,-15.50
129.376170,-0.0708,-0.0352,0.9985,-0.06,0.00,-0.18,-3.49,4.83,-15.50
129.376170,-0.0713,-0.0342,0.9966,0.00,0.00,-0.18,-3.49,4.83,-15.50
129.405480,-0.0703,-0.0347,0.9971,-0.06,0.00,-0.06,-3.49,4.83,-15.50
129.405480,-0.0708,-0.0352,0.9971,0.00,0.00,-0.18,-3.49,4.83,-15.50
129.435975,-0.0708,-0.0352,0.9985,-0.06,0.00,-0.12,-3.49,4.83,-15.50
129.435975,-0.0713,-0.0356,0.9980,0.00,0.06,-0.12,-3.49,4.83,-15.50
129.496155,-0.0703,-0.0352,0.9971,0.00,0.00,-0.18,-3.49,4.83,-15.50
129.496155,-0.0713,-0.0356,0.9980,0.00,0.00,-0.12,-3.49,4.83,-15.50
129.525379,-0.0708,-0.0347,0.9985,0.00,0.00,-0.12,-3.49,4.83,-15.50
129.525379,-0.0713,-0.0352,0.9976,0.00,0.00,-0.18,-3.49,4.83,-15.50
129.556084,-0.0703,-0.0352,0.9971,-0.06,0.06,-0.18,-3.49,4.83,-15.50
129.556084,-0.0708,-0.0356,0.9976,-0.06,0.00,-0.12,-3.49,4.83,-15.50
129.616361,-0.0718,-0.0352,0.9980,-0.06,0.00,-0.12,-3.49,4.83,-15.50
129.616361,-0.0708,-0.0347,0.9985,0.00,0.00,-0.12,-3.49,4.83,-15.50
129.645324,-0.0708,-0.0347,0.9976,0.00,0.00,-0.18,-3.49,4.83,-15.50
129.645324,-0.0708,-0.0352,0.9971,0.00,0.00,-0.18,-3.49,4.83,-15.50
129.676281,-0.0713,-0.0347,0.9976,0.00,0.00,-0.18,-3.49,4.83,-15.50
129.676281,-0.0703,-0.0352,0.9966,0.00,0.00,-0.18,-3.49,4.83,-15.50
129.736263,-0.0713,-0.0347,0.9976,-0.06,0.00,-0.18,-3.49,4.83,-15.50
129.736263,-0.0703,-0.0352,0.9980,0.00,0.06,-0.12,-3.49,4.83,-15.50
129.765401,-0.0708,-0.0347,0.9971,0.00,0.06,-0.18,-3.49,4.83,-15.50
129.765401,-0.0708,-0.0347,0.9980,-0.06,0.00,-0.24,-3.49,4.83,-15.50
129.796140,-0.0708,-0.0352,0.9990,0.00,0.00,-0.18,-3.49,4.83,-15.50
129.796140,-0.0708,-0.0347,0.9985,0.00,0.00,-0.12,-3.49,4.83,-15.50
129.856257,-0.0713,-0.0342,0.9976,-0.06,0.00,-0.12,-3.49,4.83,-15.50
129.856257,-0.0708,-0.0342,0.9971,0.00,0.00,-0.18,-3.49,4.83,-15.50
129.885368,-0.0703,-0.0356,0.9976,0.00,0.00,-0.18,-3.49,4.83,-15.50
129.885368,-0.0708,-0.0356,0.9971,0.00,0.00,-0.18,-3.49,4.83,-15.50
129.916759,-0.0703,-0.0352,0.9976,0.00,0.00,-0.18,-3.49,4.83,-15.50
129.916759,-0.0713,-0.0352,0.9971,-0.06,0.00,-0.18,-3.49,4.83,-15.50
129.976111,-0.0703,-0.0347,0.9971,0.00,0.00,-0.12,-3.49,4.83,-15.50
129.976111,-0.0703,-0.0356,0.9980,0.00,0.00,-0.12,-3.49,4.83,-15.50
130.005268,-0.0713,-0.0352,0.9971,0.00,0.00,-0.18,-3.49,4.83,-15.50
130.005268,-0.0708,-0.0356,0.9971,0.00,0.00,-0.06,-3.49,4.83,-15.50
130.036679,-0.0703,-0.0352,0.9980,0.00,0.00,-0.12,-3.49,4.83,-15.50
130.036679,-0.0708,-0.0352,0.9976,0.00,0.00,-0.18,-3.49,4.83,-15.50
130.096286,-0.0713,-0.0356,0.9966,0.00,0.00,-0.12,-3.49,4.83,-15.50
130.096286,-0.0713,-0.0342,0.9971,0.00,0.00,-0.18,-3.49,4.83,-15.50
130.125536,-0.0708,-0.0356,0.9971,-0.06,0.00,-0.18,-3.49,4.83,-15.50
130.125536,-0.0708,-0.0352,0.9976,0.00,0.00,-0.06,-3.49,4.83,-15.50
130.156208,-0.0708,-0.0347,0.9980,-0.06,0.00,-0.12,-3.49,4.83,-15.50
130.156208,-0.0713,-0.0352,0.9976,0.00,0.00,-0.24,-3.49,4.83,-15.50
130.246317,-0.0713,-0.0361,0.9961,0.00,0.00,-0.06,-3.49,4.83,-15.50
130.246317,-0.0713,-0.0352,0.9980,0.00,0.00,-0.18,-3.49,4.83,-15.50
130.249946,-0.0703,-0.0352,0.9976,0.00,0.00,-0.18,-3.49,4.83,-15.50
130.249946,-0.0708,-0.0356,0.9985,-0.06,0.06,-0.24,-3.49,4.83,-15.50
130.277330,-0.0708,-0.0342,0.9966,-0.06,0.00,-0.12,-3.49,4.83,-15.50
130.277330,-0.0713,-0.0352,0.9971,0.00,0.00,-0.18,-3.49,4.83,-15.50
130.336303,-0.0718,-0.0356,0.9976,0.00,0.00,-0.18,-3.49,4.83,-15.50
130.336303,-0.0718,-0.0352,0.9980,0.00,0.00,-0.06,-3.49,4.83,-15.50
130.365386,-0.0708,-0.0347,0.9971,0.00,0.00,-0.18,-3.49,4.83,-15.50
130.365386,-0.0713,-0.0347,0.9976,0.00,0.00,-0.12,-3.49,4.83,-15.50
130.426172,-0.0703,-0.0400,0.9980,0.06,0.00,-0.06,-3.49,4.83,-15.50
130.426172,-0.0723,-0.0322,0.9961,0.00,0.24,0.00,-3.49,4.83,-15.50
130.455373,-0.0679,-0.0396,0.9902,0.00,-0.67,-0.43,-3.49,4.83,-15.50
130.455373,-0.0679,-0.0356,0.9951,0.12,0.37,-0.12,-3.49,4.83,-15.50
130.486151,-0.0708,-0.0312,0.9932,-0.92,-1.16,-0.31,-3.49,4.83,-15.50
130.486151,-0.0684,-0.0356,0.9976,-0.12,0.00,-0.18,-3.49,4.84,-15.50
130.548149,-0.0713,-0.0347,0.9971,0.00,0.00,-0.12,-3.49,4.84,-15.50
130.548149,-0.0698,-0.0361,0.9966,-0.12,-0.18,-0.18,-3.49,4.84,-15.50
130.576078,-0.0698,-0.0356,0.9971,0.12,0.31,-0.18,-3.49,4.84,-15.50
130.576078,-0.0718,-0.0347,0.9976,0.00,0.00,-0.18,-3.49,4.83,-15.50
130.605351,-0.0713,-0.0356,0.9976,-0.12,-0.12,-0.18,-3.49,4.84,-15.50
130.605351,-0.0757,-0.0361,1.0029,-0.06,-0.06,-0.18,-3.49,4.84,-15.50
130.666155,-0.0703,-0.0391,1.0005,0.00,0.00,-0.31,-3.49,4.84,-15.50
130.666155,-0.0713,-0.0366,0.9946,-0.18,-0.18,-0.31,-3.49,4.84,-15.50
130.695367,-0.0708,-0.0352,0.9956,-0.24,0.06,-0.24,-3.49,4.84,-15.50
130.695367,-0.0703,-0.0352,0.9966,0.00,-0.06,-0.18,-3.49,4.84,-15.50
130.726591,-0.0703,-0.0366,0.9966,0.00,0.00,-0.18,-3.49,4.84,-15.50
130.726591,-0.0713,-0.0352,0.9980,0.00,0.00,-0.18,-3.49,4.84,-15.50
130.786181,-0.0708,-0.0352,0.9966,-0.06,0.00,-0.12,-3.49,4.84,-15.50
130.786181,-0.0713,-0.0352,0.9971,0.00,0.00,-0.12,-3.49,4.84,-15.50
130.815689,-0.0718,-0.0356,0.9966,-0.06,0.00,-0.12,-3.49,4.84,-15.50
130.815689,-0.0703,-0.0342,0.9976,0.00,0.00,-0.24,-3.49,4.84,-15.50
130.846139,-0.0708,-0.0356,0.9966,-0.06,0.00,-0.24,-3.49,4.84,-15.50
130.846139,-0.0708,-0.0347,0.9966,0.00,0.00,-0.12,-3.49,4.84,-15.50
130.906138,-0.0718,-0.0347,0.9976,-0.06,0.00,-0.18,-3.49,4.84,-15.50
130.906138,-0.0718,-0.0347,0.9961,0.00,0.00,-0.12,-3.49,4.84,-15.50
130.935370,-0.0713,-0.0347,0.9976,0.00,0.00,-0.18,-3.49,4.84,-15.50
130.935370,-0.0718,-0.0347,0.9985,-0.06,0.00,-0.12,-3.49,4.84,-15.50
130.966137,-0.0708,-0.0356,0.9976,-0.06,0.00,-0.18,-3.49,4.84,-15.50
130.966137,-0.0713,-0.0356,0.9976,0.00,0.00,-0.12,-3.49,4.84,-15.50
131.026344,-0.0708,-0.0356,0.9980,0.00,0.00,-0.12,-3.49,4.84,-15.50
131.026344,-0.0703,-0.0356,0.9966,0.00,0.00,-0.18,-3.49,4.84,-15.50
131.055515,-0.0718,-0.0361,0.9980,0.00,0.00,-0.18,-3.49,4.84,-15.50
131.055515,-0.0718,-0.0361,0.9971,0.00,0.00,-0.18,-3.49,4.84,-15.50
131.086172,-0.0708,-0.0352,0.9976,0.00,0.00,-0.18,-3.49,4.84,-15.50
131.086172,-0.0718,-0.0356,0.9976,0.00,0.06,-0.18,-3.49,4.84,-15.50
131.146183,-0.0713,-0.0356,0.9971,-0.06,0.00,-0.18,-3.49,4.84,-15.50
131.146183,-0.0708,-0.0352,0.9976,0.00,0.00,-0.18,-3.49,4.84,-15.50
131.175370,-0.0708,-0.0347,0.9980,0.00,0.00,-0.18,-3.49,4.84,-15.50
131.175370,-0.0713,-0.0352,0.9976,-0.06,0.00,-0.12,-3.49,4.84,-15.50
131.206141,-0.0718,-0.0361,0.9971,0.00,0.00,-0.12,-3.49,4.84,-15.50
131.206141,-0.0708,-0.0356,0.9961,0.00,0.00,-0.18,-3.49,4.84,-15.50
131.266313,-0.0718,-0.0356,0.9971,0.00,0.00,-0.12,-3.49,4.84,-15.50
131.266313,-0.0708,-0.0347,0.9976,0.00,0.00,-0.12,-3.49,4.84,-15.50
131.295445,-0.0718,-0.0352,0.9971,-0.06,0.00,-0.12,-3.49,4.84,-15.50
131.295445,-0.0713,-0.0356,0.9976,0.00,0.00,-0.12,-3.49,4.84,-15.50
131.326649,-0.0708,-0.0352,0.9980,0.00,0.00,-0.18,-3.49,4.84,-15.50
131.326649,-0.0708,-0.0356,0.9980,-0.06,0.00,-0.12,-3.49,4.84,-15.50
131.386186,-0.0713,-0.0361,0.9971,0.00,0.00,-0.12,-3.49,4.84,-15.50
131.386186,-0.0713,-0.0356,0.9971,-0.06,0.00,-0.12,-3.49,4.84,-15.50
131.415681,-0.0708,-0.0356,0.9971,0.00,0.00,-0.12,-3.49,4.84,-15.50
131.415681,-0.0708,-0.0352,0.9971,0.00,0.00,-0.18,-3.49,4.84,-15.50
131.446179,-0.0718,-0.0352,0.9980,0.00,0.00,-0.12,-3.49,4.84,-15.50
131.446179,-0.0713,-0.0361,0.9980,0.00,0.00,-0.12,-3.49,4.84,-15.50
131.506312,-0.0718,-0.0356,0.9980,0.00,0.00,-0.18,-3.49,4.84,-15.50
131.506312,-0.0713,-0.0356,0.9971,-0.06,0.00,-0.18,-3.49,4.84,-15.50
131.535577,-0.0713,-0.0356,0.9971,-0.06,0.00,-0.12,-3.49,4.84,-15.50
131.535577,-0.0718,-0.0352,0.9976,0.00,0.00,-0.18,-3.49,4.84,-15.50
131.566406,-0.0708,-0.0356,0.9980,-0.06,0.00,-0.18,-3.49,4.84,-15.50
131.566406,-0.0713,-0.0352,0.9971,0.00,0.00,-0.18,-3.49,4.84,-15.50
131.626325,-0.0713,-0.0352,0.9966,0.00,0.00,-0.18,-3.49,4.84,-15.50
131.626325,-0.0713,-0.0347,0.9966,0.00,0.00,-0.18,-3.49,4.84,-15.50
131.655433,-0.0703,-0.0356,0.9976,0.00,0.00,-0.18,-3.49,4.84,-15.50
131.655433,-0.0713,-0.0352,0.9971,0.00,0.00,-0.12,-3.49,4.84,-15.50
131.686215,-0.0713,-0.0356,0.9976,0.00,0.00,-0.12,-3.49,4.84,-15.50
131.686215,-0.0718,-0.0352,0.9966,0.00,0.00,-0.12,-3.49,4.84,-15.50
131.776538,-0.0708,-0.0356,0.9966,-0.06,0.00,-0.18,-3.49,4.84,-15.50
131.776538,-0.0713,-0.0347,0.9971,-0.06,0.00,-0.18,-3.49,4.84,-15.50
131.778878,-0.0703,-0.0356,0.9976,0.00,0.00,-0.12,-3.49,4.84,-15.50
131.778878,-0.0708,-0.0352,0.9971,0.00,0.00,-0.18,-3.49,4.84,-15.50
131.866401,-0.0718,-0.0352,0.9971,0.00,0.00,-0.18,-3.49,4.84,-15.50
131.866401,-0.0713,-0.0352,0.9980,0.00,0.00,-0.18,-3.49,4.84,-15.50
131.868573,-0.0718,-0.0352,0.9966,-0.06,0.00,-0.12,-3.49,4.84,-15.50
131.868573,-0.0708,-0.0356,0.9980,0.00,0.00,-0.24,-3.49,4.84,-15.50
131.898197,-0.0718,-0.0352,0.9971,-0.06,0.00,-0.12,-3.49,4.84,-15.50
131.898197,-0.0713,-0.0352,0.9976,-0.06,0.00,-0.18,-3.49,4.84,-15.50
131.956203,-0.0713,-0.0352,0.9976,0.00,0.00,-0.18,-3.49,4.84,-15.50
131.956203,-0.0708,-0.0356,0.9966,0.00,0.00,-0.12,-3.49,4.84,-15.50
131.985400,-0.0703,-0.0366,0.9976,-0.06,0.00,-0.12,-3.49,4.84,-15.50
131.985400,-0.0713,-0.0356,0.9980,0.00,0.00,-0.12,-3.49,4.84,-15.50
132.016507,-0.0708,-0.0347,0.9976,0.00,0.00,-0.12,-3.49,4.84,-15.50
132.016507,-0.0718,-0.0352,0.9961,0.00,0.00,-0.06,-3.49,4.84,-15.50
132.076398,-0.0708,-0.0352,0.9961,0.00,0.00,-0.18,-3.49,4.84,-15.50
132.076398,-0.0713,-0.0352,0.9971,-0.06,0.00,-0.18,-3.49,4.84,-15.50
132.105450,-0.0718,-0.0356,0.9966,0.00,0.06,-0.18,-3.49,4.84,-15.50
132.105450,-0.0708,-0.0352,0.9976,0.00,0.00,-0.18,-3.49,4.85,-15.50
132.136317,-0.0713,-0.0356,0.9980,0.00,0.00,-0.06,-3.49,4.85,-15.50
132.136317,-0.0713,-0.0347,0.9971,0.00,0.00,-0.18,-3.49,4.85,-15.50
132.196278,-0.0718,-0.0352,0.9976,0.00,0.00,-0.12,-3.49,4.85,-15.50
132.196278,-0.0713,-0.0347,0.9976,0.00,0.00,-0.12,-3.49,4.85,-15.50
132.225452,-0.0708,-0.0352,0.9976,0.00,0.00,-0.18,-3.49,4.85,-15.50
132.225452,-0.0708,-0.0356,0.9971,0.00,0.00,-0.12,-3.49,4.85,-15.50
132.256196,-0.0718,-0.0347,0.9976,0.00,0.00,-0.18,-3.49,4.85,-15.50
132.256196,-0.0713,-0.0352,0.9976,0.00,0.00,-0.18,-3.49,4.85,-15.50
132.315842,-0.0708,-0.0347,0.9976,-0.06,0.00,-0.18,-3.49,4.85,-15.50
132.315842,-0.0713,-0.0356,0.9976,-0.06,0.00,-0.12,-3.49,4.85,-15.50
132.346255,-0.0713,-0.0352,0.9976,0.00,0.06,-0.18,-3.49,4.85,-15.50
132.346255,-0.0703,-0.0347,0.9971,-0.06,0.00,-0.18,-3.49,4.85,-15.50
132.375379,-0.0713,-0.0356,0.9976,-0.06,0.00,-0.18,-3.49,4.85,-15.50
132.375379,-0.0708,-0.0356,0.9971,0.00,0.00,-0.12,-3.49,4.85,-15.50
132.436276,-0.0713,-0.0352,0.9971,0.00,0.00,-0.18,-3.49,4.85,-15.50
132.436276,-0.0708,-0.0352,0.9971,0.00,0.00,-0.18,-3.49,4.85,-15.50
132.465426,-0.0718,-0.0356,0.9976,0.00,0.00,-0.18,-3.49,4.85,-15.50
132.465426,-0.0708,-0.0361,0.9985,0.00,0.00,-0.12,-3.49,4.85,-15.50
132.496199,-0.0708,-0.0356,0.9976,-0.06,0.00,-0.12,-3.49,4.85,-15.50
132.496199,-0.0718,-0.0347,0.9971,0.00,0.00,-0.18,-3.49,4.85,-15.50
132.556288,-0.0708,-0.0352,0.9976,0.00,0.00,-0.18,-3.49,4.85,-15.50
132.556288,-0.0713,-0.0356,0.9980,-0.06,0.00,-0.18,-3.49,4.85,-15.50
132.585496,-0.0718,-0.0347,0.9980,0.00,0.00,-0.12,-3.49,4.85,-15.50
132.585496,-0.0718,-0.0347,0.9976,0.00,0.06,-0.18,-3.49,4.85,-15.50
132.616593,-0.0718,-0.0352,0.9971,-0.06,0.00,-0.24,-3.49,4.85,-15.50
132.616593,-0.0718,-0.0356,0.9971,0.00,0.00,-0.12,-3.49,4.85,-15.50
132.676195,-0.0713,-0.0352,0.9976,0.00,0.00,-0.18,-3.49,4.85,-15.50
132.676195,-0.0713,-0.0356,0.9976,0.00,0.00,-0.18,-3.49,4.85,-15.50
132.705520,-0.0713,-0.0352,0.9971,-0.06,0.00,-0.18,-3.49,4.85,-15.50
132.705520,-0.0728,-0.0352,0.9976,-0.06,0.00,-0.18,-3.49,4.85,-15.50
132.736408,-0.0713,-0.0352,0.9966,-0.06,0.00,-0.18,-3.49,4.85,-15.50
132.736408,-0.0713,-0.0347,0.9971,0.00,0.00,-0.18,-3.49,4.85,-15.50
132.796288,-0.0718,-0.0347,0.9971,0.00,0.00,-0.12,-3.49,4.85,-15.50
132.796288,-0.0718,-0.0352,0.9976,0.00,0.00,-0.12,-3.49,4.85,-15.50
132.825463,-0.0713,-0.0356,0.9971,0.00,0.00,-0.18,-3.49,4.85,-15.50
132.825463,-0.0718,-0.0352,0.9966,-0.06,0.00,-0.12,-3.49,4.85,-15.50
132.856158,-0.0718,-0.0356,0.9980,-0.06,0.00,-0.18,-3.49,4.86,-15.50
132.856158,-0.0713,-0.0347,0.9966,0.00,0.00,-0.18,-3.49,4.86,-15.50
132.916452,-0.0713,-0.0352,0.9976,0.00,0.00,-0.24,-3.49,4.86,-15.50
132.916452,-0.0723,-0.0352,0.9966,0.00,0.00,-0.12,-3.49,4.86,-15.50
132.945414,-0.0708,-0.0347,0.9976,-0.06,0.00,-0.12,-3.49,4.86,-15.50
132.945414,-0.0708,-0.0356,0.9976,-0.06,0.06,-0.18,-3.49,4.86,-15.50
132.976194,-0.0713,-0.0347,0.9971,-0.06,0.00,-0.18,-3.49,4.86,-15.50
132.976194,-0.0718,-0.0352,0.9966,0.00,0.00,-0.18,-3.49,4.86,-15.50
133.036390,-0.0708,-0.0347,0.9971,0.00,0.00,-0.18,-3.49,4.86,-15.50
133.036390,-0.0703,-0.0347,0.9971,0.00,0.06,-0.12,-3.49,4.86,-15.50
133.065482,-0.0713,-0.0352,0.9961,-0.06,0.00,-0.18,-3.49,4.86,-15.50
133.065482,-0.0708,-0.0347,0.9966,-0.06,0.00,-0.18,-3.49,4.86,-15.50
133.096240,-0.0713,-0.0352,0.9971,0.00,0.00,-0.12,-3.49,4.86,-15.50
133.096240,-0.0708,-0.0356,0.9971,0.00,0.00,-0.18,-3.49,4.86,-15.50
133.156353,-0.0713,-0.0347,0.9976,0.00,0.00,-0.18,-3.49,4.86,-15.50
133.156353,-0.0713,-0.0352,0.9980,0.00,0.00,-0.18,-3.49,4.86,-15.50
133.185497,-0.0713,-0.0352,0.9976,-0.06,0.00,-0.18,-3.49,4.86,-15.50
133.185497,-0.0723,-0.0347,0.9971,0.00,0.00,-0.18,-3.49,4.86,-15.50
133.246252,-0.0713,-0.0356,0.9976,-0.06,0.00,-0.18,-3.49,4.86,-15.50
133.246252,-0.0713,-0.0352,0.9956,-0.06,0.00,-0.12,-3.49,4.86,-15.50
133.275445,-0.0713,-0.0352,0.9976,-0.06,0.00,-0.18,-3.49,4.86,-15.50
133.275445,-0.0708,-0.0347,0.9971,-0.06,0.00,-0.06,-3.49,4.86,-15.50
133.306260,-0.0713,-0.0352,0.9971,-0.06,0.00,-0.18,-3.49,4.86,-15.50
133.306260,-0.0718,-0.0347,0.9976,0.00,0.00,-0.18,-3.49,4.86,-15.50
133.366266,-0.0713,-0.0352,0.9966,0.00,0.00,-0.18,-3.49,4.86,-15.50
133.366266,-0.0723,-0.0361,0.9971,-0.06,0.00,-0.18,-3.49,4.86,-15.50
133.395458,-0.0713,-0.0342,0.9985,0.00,0.00,-0.18,-3.49,4.86,-15.50
133.395458,-0.0713,-0.0356,0.9966,-0.06,0.00,-0.18,-3.49,4.86,-15.50
133.426261,-0.0713,-0.0356,0.9971,0.00,0.00,-0.18,-3.49,4.86,-15.50
133.426261,-0.0713,-0.0352,0.9966,-0.06,0.00,-0.18,-3.49,4.86,-15.50
133.486263,-0.0713,-0.0352,0.9966,0.00,0.00,-0.18,-3.49,4.86,-15.50
133.486263,-0.0703,-0.0352,0.9971,0.00,0.00,-0.18,-3.49,4.86,-15.50
133.515813,-0.0708,-0.0356,0.9966,0.00,0.00,-0.18,-3.49,4.86,-15.50
133.515813,-0.0713,-0.0356,0.9966,0.00,0.00,-0.18,-3.49,4.86,-15.50
133.546291,-0.0718,-0.0352,0.9961,0.00,0.06,-0.18,-3.49,4.86,-15.50
133.546291,-0.0708,-0.0356,0.9971,-0.06,0.00,-0.12,-3.49,4.86,-15.50
133.606355,-0.0713,-0.0352,0.9966,-0.06,0.00,-0.18,-3.49,4.86,-15.50
133.606355,-0.0713,-0.0347,0.9961,-0.06,0.00,-0.18,-3.49,4.86,-15.50
133.635475,-0.0708,-0.0352,0.9966,-0.06,0.00,-0.12,-3.49,4.86,-15.50
133.635475,-0.0713,-0.0352,0.9966,0.00,0.00,-0.18,-3.49,4.86,-15.50
133.666168,-0.0713,-0.0347,0.9966,-0.06,0.00,-0.18,-3.49,4.86,-15.50
133.666168,-0.0708,-0.0352,0.9966,-0.06,0.00,-0.12,-3.49,4.86,-15.50
133.726227,-0.0713,-0.0352,0.9966,-0.06,0.00,-0.12,-3.49,4.86,-15.50
133.726227,-0.0708,-0.0347,0.9976,-0.06,0.00,-0.18,-3.49,4.86,-15.50
133.755459,-0.0718,-0.0342,0.9966,-0.06,0.00,-0.12,-3.49,4.86,-15.50
133.755459,-0.0713,-0.0352,0.9961,0.00,0.00,-0.18,-3.49,4.86,-15.50
133.786284,-0.0718,-0.0352,0.9966,0.00,0.00,-0.18,-3.49,4.86,-15.50
133.786284,-0.0713,-0.0356,0.9980,-0.06,0.00,-0.18,-3.49,4.86,-15.50
133.846281,-0.0718,-0.0356,0.9956,-0.06,0.00,-0.12,-3.49,4.86,-15.50
133.846281,-0.0708,-0.0356,0.9971,0.00,0.00,-0.18,-3.49,4.86,-15.50
133.876603,-0.0718,-0.0352,0.9971,0.00,0.00,-0.18,-3.49,4.86,-15.50
133.876603,-0.0708,-0.0347,0.9956,-0.06,0.00,-0.18,-3.49,4.86,-15.50
133.905979,-0.0703,-0.0356,0.9961,-0.06,0.00,-0.12,-3.49,4.86,-15.50
133.905979,-0.0713,-0.0352,0.9966,0.00,0.00,-0.18,-3.49,4.86,-15.50
133.966245,-0.0713,-0.0347,0.9971,0.00,0.00,-0.18,-3.49,4.86,-15.50
133.966245,-0.0718,-0.0352,0.9971,0.00,0.00,-0.18,-3.49,4.86,-15.50
133.995458,-0.0718,-0.0352,0.9980,0.00,0.00,-0.18,-3.49,4.86,-15.50
133.995458,-0.0708,-0.0356,0.9971,0.00,0.00,-0.12,-3.49,4.86,-15.50
134.026386,-0.0713,-0.0352,0.9980,-0.06,0.00,-0.18,-3.49,4.86,-15.50
134.026386,-0.0713,-0.0347,0.9976,0.00,0.00,-0.18,-3.49,4.86,-15.50
134.086385,-0.0713,-0.0352,0.9971,0.00,0.00,-0.18,-3.49,4.86,-15.50
134.086385,-0.0703,-0.0352,0.9976,0.00,0.00,-0.18,-3.49,4.86,-15.50
134.115764,-0.0713,-0.0352,0.9976,-0.06,0.00,-0.12,-3.49,4.86,-15.50
134.115764,-0.0708,-0.0347,0.9971,-0.06,0.00,-0.12,-3.49,4.86,-15.50
134.146314,-0.0708,-0.0352,0.9976,-0.06,0.00,-0.18,-3.49,4.86,-15.50
134.146314,-0.0713,-0.0352,0.9980,-0.06,0.00,-0.18,-3.49,4.86,-15.50
134.206234,-0.0708,-0.0356,0.9971,-0.06,0.00,-0.18,-3.49,4.86,-15.50
134.206234,-0.0708,-0.0356,0.9976,0.00,0.00,-0.18,-3.49,4.86,-15.50
134.235529,-0.0713,-0.0356,0.9976,0.00,0.00,-0.18,-3.49,4.86,-15.50
134.235529,-0.0713,-0.0352,0.9966,-0.06,0.00,-0.18,-3.49,4.86,-15.50
134.266360,-0.0713,-0.0356,0.9980,0.00,0.00,-0.18,-3.49,4.86,-15.50
134.266360,-0.0718,-0.0347,0.9971,-0.06,0.00,-0.18,-3.49,4.86,-15.50
134.325644,-0.0718,-0.0352,0.9980,0.00,0.00,-0.18,-3.49,4.86,-15.50
134.325644,-0.0713,-0.0352,0.9966,-0.06,0.00,-0.12,-3.49,4.86,-15.50
134.356313,-0.0713,-0.0352,0.9966,0.00,0.00,-0.12,-3.49,4.86,-15.50
134.356313,-0.0708,-0.0361,0.9966,0.00,0.00,-0.18,-3.49,4.86,-15.50
134.385480,-0.0713,-0.0352,0.9980,-0.06,0.00,-0.12,-3.49,4.86,-15.50
134.385480,-0.0703,-0.0356,0.9976,0.00,0.00,-0.12,-3.49,4.86,-15.50
134.446299,-0.0713,-0.0356,0.9980,0.00,0.00,-0.18,-3.49,4.86,-15.50
134.446299,-0.0718,-0.0356,0.9971,0.00,0.00,-0.24,-3.49,4.86,-15.50
134.475416,-0.0703,-0.0347,0.9976,0.00,0.00,-0.24,-3.49,4.86,-15.50
134.475416,-0.0713,-0.0356,0.9980,-0.06,0.00,-0.24,-3.49,4.86,-15.50
134.506270,-0.0703,-0.0361,0.9976,-0.06,0.00,-0.12,-3.49,4.86,-15.50
134.506270,-0.0713,-0.0352,0.9976,0.00,0.00,-0.18,-3.49,4.86,-15.50
134.566395,-0.0713,-0.0356,0.9971,-0.06,0.00,-0.12,-3.49,4.86,-15.50
134.566395,-0.0708,-0.0352,0.9976,0.00,0.00,-0.12,-3.49,4.86,-15.50
134.595535,-0.0718,-0.0356,0.9971,-0.06,0.00,-0.12,-3.49,4.86,-15.50
134.595535,-0.0708,-0.0352,0.9966,-0.06,0.00,-0.12,-3.49,4.86,-15.50
134.656320,-0.0703,-0.0347,0.9976,0.00,0.00,-0.24,-3.49,4.86,-15.50
134.656320,-0.0708,-0.0352,0.9976,0.00,0.00,-0.18,-3.49,4.86,-15.50
134.685502,-0.0718,-0.0352,0.9976,0.00,0.00,-0.24,-3.49,4.86,-15.50
134.685502,-0.0713,-0.0347,0.9971,-0.06,0.00,-0.18,-3.49,4.86,-15.50
134.718674,-0.0708,-0.0356,0.9980,-0.06,0.00,-0.18,-3.49,4.86,-15.50
134.718674,-0.0708,-0.0342,0.9976,0.00,0.00,-0.18,-3.49,4.86,-15.50
134.776433,-0.0718,-0.0347,0.9976,-0.06,0.00,-0.12,-3.49,4.86,-15.50
134.776433,-0.0718,-0.0352,0.9966,0.00,0.00,-0.18,-3.49,4.86,-15.50
134.805508,-0.0718,-0.0361,0.9976,0.00,0.00,-0.18,-3.49,4.86,-15.50
134.805508,-0.0718,-0.0356,0.9966,-0.06,0.00,-0.18,-3.49,4.86,-15.50
134.836298,-0.0708,-0.0352,0.9971,-0.06,0.00,-0.18,-3.49,4.86,-15.50
134.836298,-0.0703,-0.0352,0.9971,-0.06,0.00,-0.12,-3.49,4.86,-15.50
134.896264,-0.0713,-0.0352,0.9971,0.00,0.00,-0.18,-3.49,4.86,-15.50
134.896264,-0.0713,-0.0342,0.9966,0.00,0.00,-0.18,-3.49,4.86,-15.50
134.925472,-0.0713,-0.0356,0.9976,0.00,0.00,-0.12,-3.49,4.86,-15.50
134.925472,-0.0708,-0.0356,0.9971,0.00,0.00,-0.18,-3.49,4.86,-15.50
134.956253,-0.0708,-0.0356,0.9966,0.00,0.00,-0.12,-3.49,4.86,-15.50
134.956253,-0.0713,-0.0352,0.9971,-0.06,0.00,-0.18,-3.49,4.86,-15.50
135.046613,-0.0723,-0.0352,0.9966,-0.06,0.00,-0.12,-3.49,4.86,-15.50
135.046613,-0.0713,-0.0356,0.9971,0.00,0.00,-0.18,-3.49,4.86,-15.50
135.049077,-0.0708,-0.0352,0.9966,-0.06,0.00,-0.12,-3.49,4.86,-15.50
135.049077,-0.0708,-0.0347,0.9956,-0.06,0.00,-0.18,-3.49,4.86,-15.50
135.078289,-0.0713,-0.0352,0.9971,-0.06,0.00,-0.12,-3.49,4.86,-15.50
135.078289,-0.0708,-0.0352,0.9961,-0.06,0.00,-0.18,-3.49,4.86,-15.50
135.136347,-0.0713,-0.0356,0.9976,-0.06,-0.06,-0.18,-3.49,4.86,-15.50
135.136347,-0.0708,-0.0356,0.9961,0.00,0.00,-0.24,-3.49,4.86,-15.50
135.166705,-0.0713,-0.0352,0.9966,-0.06,0.00,-0.12,-3.49,4.86,-15.50
135.166705,-0.0708,-0.0352,0.9966,0.00,0.00,-0.12,-3.49,4.86,-15.50
135.196006,-0.0713,-0.0352,0.9980,-0.06,0.00,-0.12,-3.49,4.86,-15.50
135.196006,-0.0718,-0.0352,0.9971,-0.06,0.00,-0.18,-3.49,4.86,-15.50
135.256280,-0.0718,-0.0352,0.9971,-0.06,0.00,-0.12,-3.49,4.86,-15.50
135.256280,-0.0713,-0.0356,0.9966,0.00,0.00,-0.18,-3.49,4.86,-15.50
135.285565,-0.0718,-0.0352,0.9976,-0.06,0.00,-0.18,-3.49,4.86,-15.50
135.285565,-0.0718,-0.0347,0.9971,-0.06,0.00,-0.18,-3.49,4.86,-15.50
135.315865,-0.0713,-0.0352,0.9976,0.00,0.00,-0.06,-3.49,4.86,-15.50
135.315865,-0.0713,-0.0356,0.9971,-0.06,0.00,-0.12,-3.49,4.86,-15.50
135.376300,-0.0713,-0.0356,0.9976,0.00,0.00,-0.18,-3.49,4.86,-15.50
135.376300,-0.0703,-0.0356,0.9976,0.00,0.00,-0.12,-3.49,4.86,-15.50
135.405522,-0.0713,-0.0352,0.9971,0.00,0.00,-0.18,-3.49,4.86,-15.50
135.405522,-0.0718,-0.0352,0.9961,0.00,0.00,-0.18,-3.49,4.86,-15.50
135.436270,-0.0708,-0.0347,0.9971,0.00,0.00,-0.18,-3.49,4.86,-15.50
135.436270,-0.0723,-0.0347,0.9966,0.00,0.00,-0.24,-3.49,4.86,-15.50
135.496333,-0.0718,-0.0352,0.9976,0.00,0.06,-0.12,-3.49,4.86,-15.50
135.496333,-0.0713,-0.0356,0.9980,-0.06,0.00,-0.18,-3.49,4.86,-15.50
135.525503,-0.0718,-0.0356,0.9971,0.00,0.06,-0.18,-3.49,4.86,-15.50
135.525503,-0.0718,-0.0356,0.9966,-0.06,0.00,-0.18,-3.49,4.86,-15.50
135.556331,-0.0718,-0.0352,0.9976,-0.06,0.06,-0.18,-3.49,4.86,-15.50
135.556331,-0.0713,-0.0352,0.9971,0.00,0.00,-0.12,-3.49,4.86,-15.50
135.616617,-0.0713,-0.0356,0.9961,-0.06,0.00,-0.18,-3.49,4.86,-15.50
135.616617,-0.0713,-0.0352,0.9966,-0.06,0.00,-0.18,-3.49,4.87,-15.50
135.645546,-0.0713,-0.0352,0.9971,0.00,0.00,-0.18,-3.49,4.87,-15.50
135.645546,-0.0713,-0.0352,0.9976,-0.06,0.00,-0.18,-3.49,4.87,-15.50
135.676298,-0.0713,-0.0352,0.9971,-0.06,0.00,-0.18,-3.49,4.87,-15.50
135.676298,-0.0713,-0.0342,0.9966,-0.06,0.00,-0.18,-3.49,4.87,-15.50
135.736301,-0.0723,-0.0352,0.9961,0.00,0.00,-0.12,-3.49,4.87,-15.50
135.736301,-0.0713,-0.0352,0.9966,0.00,0.00,-0.12,-3.49,4.87,-15.50
135.765607,-0.0713,-0.0347,0.9976,-0.06,0.00,-0.18,-3.49,4.87,-15.50
135.765607,-0.0708,-0.0347,0.9980,0.00,0.00,-0.12,-3.49,4.87,-15.50
135.796276,-0.0713,-0.0352,0.9976,0.00,0.00,-0.18,-3.49,4.87,-15.50
135.796276,-0.0713,-0.0352,0.9976,-0.06,0.00,-0.18,-3.49,4.87,-15.50
135.856489,-0.0713,-0.0356,0.9976,0.00,0.00,-0.18,-3.49,4.87,-15.50
135.856489,-0.0718,-0.0356,0.9966,-0.06,0.00,-0.18,-3.49,4.87,-15.50
135.885594,-0.0713,-0.0347,0.9976,-0.06,0.00,-0.18,-3.49,4.87,-15.50
135.885594,-0.0718,-0.0352,0.9966,0.00,0.00,-0.18,-3.49,4.87,-15.50
135.916577,-0.0718,-0.0356,0.9976,0.00,0.00,-0.18,-3.49,4.87,-15.50
135.916577,-0.0718,-0.0352,0.9976,0.00,0.00,-0.12,-3.49,4.87,-15.50
135.976361,-0.0718,-0.0356,0.9976,-0.06,0.00,-0.18,-3.49,4.87,-15.50
135.976361,-0.0713,-0.0347,0.9966,0.00,0.00,-0.18,-3.49,4.87,-15.50
136.005519,-0.0708,-0.0361,0.9966,-0.06,0.00,-0.12,-3.49,4.87,-15.50
136.005519,-0.0713,-0.0361,0.9971,0.00,0.00,-0.18,-3.49,4.87,-15.50
136.066485,-0.0713,-0.0352,0.9976,-0.06,0.00,-0.12,-3.49,4.87,-15.50
136.066485,-0.0708,-0.0356,0.9985,-0.06,0.00,-0.24,-3.49,4.87,-15.50
136.095605,-0.0713,-0.0356,0.9966,0.00,0.00,-0.18,-3.49,4.87,-15.50
136.095605,-0.0718,-0.0361,0.9966,-0.06,0.00,-0.12,-3.49,4.87,-15.50
136.126309,-0.0718,-0.0352,0.9971,-0.06,0.00,-0.12,-3.49,4.87,-15.50
136.126309,-0.0713,-0.0356,0.9976,-0.06,0.00,-0.24,-3.49,4.87,-15.50
136.186339,-0.0713,-0.0356,0.9966,0.00,0.00,-0.12,-3.49,4.87,-15.50
136.186339,-0.0723,-0.0356,0.9966,0.00,0.00,-0.18,-3.49,4.87,-15.50
136.215837,-0.0718,-0.0352,0.9971,-0.06,0.00,-0.18,-3.49,4.87,-15.50
136.215837,-0.0723,-0.0352,0.9976,0.00,0.00,-0.24,-3.49,4.87,-15.50
136.245525,-0.0708,-0.0352,0.9980,0.00,0.00,-0.12,-3.49,4.87,-15.50
136.245525,-0.0713,-0.0361,0.9971,0.00,0.00,-0.18,-3.49,4.87,-15.50
136.306482,-0.0718,-0.0361,0.9980,-0.06,0.00,-0.18,-3.49,4.87,-15.50
136.306482,-0.0713,-0.0352,0.9971,0.00,0.00,-0.12,-3.49,4.87,-15.50
136.336309,-0.0718,-0.0356,0.9966,0.00,0.06,-0.12,-3.49,4.87,-15.50
136.336309,-0.0703,-0.0356,0.9971,0.00,0.00,-0.18,-3.49,4.87,-15.50
136.365585,-0.0713,-0.0347,0.9971,-0.06,0.00,-0.12,-3.49,4.87,-15.50
136.365585,-0.0718,-0.0352,0.9971,0.00,0.00,-0.18,-3.49,4.87,-15.50
136.426359,-0.0703,-0.0356,0.9976,-0.06,0.00,-0.18,-3.49,4.87,-15.50
136.426359,-0.0713,-0.0356,0.9971,0.00,0.00,-0.18,-3.49,4.87,-15.50
136.456731,-0.0703,-0.0361,0.9980,-0.06,0.00,-0.18,-3.49,4.87,-15.50
136.456731,-0.0713,-0.0356,0.9976,0.00,0.00,-0.18,-3.49,4.87,-15.50
136.485510,-0.0718,-0.0356,0.9976,0.00,0.00,-0.12,-3.49,4.87,-15.50
136.485510,-0.0713,-0.0347,0.9980,0.00,0.00,-0.12,-3.49,4.87,-15.50
136.546370,-0.0713,-0.0352,0.9976,0.00,0.00,-0.12,-3.49,4.87,-15.50
136.546370,-0.0718,-0.0352,0.9980,0.00,0.00,-0.18,-3.49,4.87,-15.50
136.575518,-0.0713,-0.0352,0.9976,0.00,0.00,-0.12,-3.49,4.87,-15.50
136.575518,-0.0713,-0.0347,0.9976,-0.06,0.00,-0.12,-3.49,4.87,-15.50
136.606256,-0.0713,-0.0342,0.9971,0.00,0.00,-0.18,-3.49,4.87,-15.50
136.606256,-0.0708,-0.0356,0.9980,-0.06,0.00,-0.18,-3.49,4.87,-15.50
136.666315,-0.0713,-0.0347,0.9980,-0.06,0.00,-0.18,-3.49,4.87,-15.50
136.666315,-0.0718,-0.0356,0.9976,0.00,0.00,-0.18,-3.49,4.87,-15.50
136.695564,-0.0713,-0.0356,0.9976,0.00,0.00,-0.18,-3.49,4.87,-15.50
136.695564,-0.0718,-0.0352,0.9971,0.00,0.00,-0.18,-3.49,4.87,-15.50
136.726309,-0.0713,-0.0347,0.9971,-0.06,0.00,-0.18,-3.49,4.87,-15.50
136.726309,-0.0718,-0.0352,0.9971,0.00,0.00,-0.12,-3.49,4.87,-15.50
136.786838,-0.0713,-0.0352,0.9976,0.00,0.00,-0.12,-3.49,4.87,-15.50
136.786838,-0.0703,-0.0352,0.9976,0.00,0.06,-0.18,-3.49,4.87,-15.50
136.816009,-0.0713,-0.0352,0.9976,-0.06,0.00,-0.12,-3.49,4.87,-15.50
136.816009,-0.0718,-0.0352,0.9971,0.00,0.00,-0.18,-3.49,4.87,-15.50
136.846560,-0.0718,-0.0342,0.9971,-0.06,0.00,-0.12,-3.49,4.87,-15.50
136.846560,-0.0723,-0.0347,0.9976,0.00,0.00,-0.12,-3.49,4.87,-15.50
136.906504,-0.0713,-0.0347,0.9976,0.00,0.00,-0.18,-3.49,4.87,-15.50
136.906504,-0.0713,-0.0356,0.9966,-0.06,0.00,-0.18,-3.49,4.87,-15.50
136.935612,-0.0708,-0.0352,0.9966,0.00,0.06,-0.18,-3.49,4.87,-15.50
136.935612,-0.0713,-0.0347,0.9961,0.00,0.00,-0.18,-3.49,4.87,-15.50
136.966353,-0.0713,-0.0347,0.9971,0.00,0.00,-0.18,-3.49,4.87,-15.50
136.966353,-0.0713,-0.0356,0.9971,-0.06,0.00,-0.12,-3.49,4.87,-15.50
137.026443,-0.0713,-0.0352,0.9976,-0.06,0.00,-0.18,-3.49,4.87,-15.50
137.026443,-0.0723,-0.0352,0.9976,0.00,0.00,-0.18,-3.49,4.87,-15.50
137.055734,-0.0718,-0.0352,0.9971,-0.06,0.00,-0.12,-3.49,4.87,-15.50
137.055734,-0.0713,-0.0352,0.9980,-0.06,0.00,-0.12,-3.49,4.87,-15.50
137.086375,-0.0713,-0.0356,0.9971,0.00,0.00,-0.12,-3.49,4.87,-15.50
137.086375,-0.0708,-0.0352,0.9980,-0.06,0.00,-0.12,-3.49,4.87,-15.50
137.146434,-0.0708,-0.0352,0.9976,0.00,0.00,-0.12,-3.49,4.87,-15.50
137.146434,-0.0718,-0.0347,0.9971,0.00,0.00,-0.18,-3.49,4.87,-15.50
137.175606,-0.0723,-0.0352,0.9971,0.00,0.00,-0.18,-3.49,4.87,-15.50
137.175606,-0.0713,-0.0352,0.9980,0.00,0.06,-0.12,-3.49,4.87,-15.50
137.206370,-0.0713,-0.0352,0.9966,0.00,0.00,-0.18,-3.49,4.87,-15.50
137.206370,-0.0718,-0.0356,0.9971,0.00,0.00,-0.18,-3.49,4.87,-15.50
137.266506,-0.0718,-0.0356,0.9980,0.00,0.00,-0.18,-3.49,4.87,-15.50
137.266506,-0.0708,-0.0361,0.9971,-0.06,0.00,-0.12,-3.49,4.87,-15.50
137.296418,-0.0713,-0.0352,0.9980,-0.06,0.00,-0.18,-3.49,4.87,-15.50
137.296418,-0.0723,-0.0361,0.9976,0.00,0.00,-0.06,-3.49,4.87,-15.50
137.325614,-0.0713,-0.0361,0.9966,0.00,0.00,-0.12,-3.49,4.87,-15.50
137.325614,-0.0723,-0.0356,0.9976,0.00,0.00,-0.18,-3.49,4.87,-15.50
137.386371,-0.0718,-0.0347,0.9980,-0.06,0.00,-0.18,-3.49,4.87,-15.50
137.386371,-0.0718,-0.0352,0.9976,-0.06,0.00,-0.12,-3.49,4.87,-15.50
137.415893,-0.0718,-0.0361,0.9976,-0.06,0.00,-0.12,-3.49,4.87,-15.50
137.415893,-0.0713,-0.0356,0.9976,0.00,0.00,-0.12,-3.49,4.87,-15.50
137.476354,-0.0713,-0.0352,0.9976,0.00,0.00,-0.18,-3.49,4.87,-15.50
137.476354,-0.0713,-0.0356,0.9961,0.00,0.00,-0.18,-3.49,4.87,-15.50
137.505708,-0.0718,-0.0356,0.9966,-0.06,0.00,-0.18,-3.49,4.87,-15.50
137.505708,-0.0718,-0.0347,0.9971,0.00,0.00,-0.12,-3.49,4.87,-15.50
137.536484,-0.0713,-0.0347,0.9966,-0.06,0.00,-0.18,-3.49,4.87,-15.50
137.536484,-0.0723,-0.0347,0.9976,-0.06,0.00,-0.12,-3.49,4.87,-15.50
137.596426,-0.0713,-0.0352,0.9971,-0.06,0.00,-0.18,-3.49,4.87,-15.50
137.596426,-0.0713,-0.0356,0.9971,0.00,-0.06,-0.24,-3.49,4.87,-15.50
137.625593,-0.0718,-0.0347,0.9971,-0.06,0.00,-0.12,-3.49,4.87,-15.50
137.625593,-0.0723,-0.0352,0.9961,0.00,0.00,-0.18,-3.49,4.87,-15.50
137.656294,-0.0713,-0.0356,0.9971,0.00,0.00,-0.12,-3.49,4.87,-15.50
137.656294,-0.0718,-0.0352,0.9966,0.00,0.00,-0.18,-3.49,4.87,-15.50
137.716798,-0.0718,-0.0356,0.9966,0.00,0.00,-0.18,-3.49,4.87,-15.50
137.716798,-0.0708,-0.0356,0.9971,0.00,0.00,-0.18,-3.49,4.87,-15.50
137.746108,-0.0713,-0.0347,0.9961,0.00,0.00,-0.18,-3.49,4.87,-15.50
137.746108,-0.0723,-0.0356,0.9976,0.00,0.00,-0.12,-3.49,4.87,-15.50
137.776564,-0.0713,-0.0337,0.9971,0.00,0.00,-0.18,-3.49,4.87,-15.50
137.776564,-0.0718,-0.0347,0.9971,0.00,0.00,-0.18,-3.49,4.87,-15.50
137.836412,-0.0723,-0.0352,0.9966,-0.06,0.00,-0.24,-3.49,4.87,-15.50
137.836412,-0.0708,-0.0356,0.9966,-0.06,0.00,-0.18,-3.49,4.87,-15.50
137.865596,-0.0718,-0.0352,0.9961,0.00,0.00,-0.18,-3.49,4.87,-15.50
137.865596,-0.0713,-0.0347,0.9971,0.00,0.00,-0.18,-3.49,4.87,-15.50
137.896341,-0.0713,-0.0356,0.9961,-0.06,0.06,-0.24,-3.49,4.87,-15.50
137.896341,-0.0723,-0.0347,0.9966,0.00,0.00,-0.18,-3.49,4.87,-15.50
137.956353,-0.0713,-0.0356,0.9961,0.00,0.00,-0.12,-3.49,4.87,-15.50
137.956353,-0.0713,-0.0356,0.9966,-0.06,0.00,-0.18,-3.49,4.87,-15.50
137.985558,-0.0718,-0.0347,0.9971,0.00,0.00,-0.12,-3.49,4.87,-15.50
137.985558,-0.0723,-0.0361,0.9971,0.00,0.00,-0.12,-3.49,4.87,-15.50
138.016688,-0.0718,-0.0347,0.9966,0.00,0.00,-0.18,-3.49,4.87,-15.50
138.016688,-0.0708,-0.0356,0.9966,-0.06,0.00,-0.18,-3.49,4.87,-15.50
138.076544,-0.0713,-0.0356,0.9966,-0.06,0.00,-0.24,-3.49,4.87,-15.50
138.076544,-0.0708,-0.0352,0.9961,0.00,0.00,-0.18,-3.49,4.87,-15.50
138.105642,-0.0708,-0.0352,0.9966,0.00,0.00,-0.12,-3.49,4.87,-15.50
138.105642,-0.0713,-0.0347,0.9980,-0.06,0.00,-0.18,-3.49,4.87,-15.50
138.136398,-0.0708,-0.0347,0.9966,-0.06,0.00,-0.12,-3.49,4.87,-15.50
138.136398,-0.0718,-0.0352,0.9971,-0.06,0.00,-0.18,-3.49,4.87,-15.50
138.196398,-0.0713,-0.0352,0.9966,0.00,0.00,-0.12,-3.49,4.87,-15.50
138.196398,-0.0708,-0.0352,0.9961,0.00,0.00,-0.18,-3.49,4.87,-15.50
138.225592,-0.0713,-0.0352,0.9966,-0.06,0.00,-0.18,-3.49,4.87,-15.50
138.225592,-0.0713,-0.0347,0.9976,-0.06,0.00,-0.12,-3.49,4.87,-15.50
138.256352,-0.0713,-0.0352,0.9966,0.00,0.00,-0.18,-3.49,4.87,-15.50
138.256352,-0.0718,-0.0352,0.9966,0.00,0.00,-0.18,-3.49,4.88,-15.50
138.316847,-0.0713,-0.0361,0.9971,0.00,0.00,-0.24,-3.49,4.88,-15.50
138.316847,-0.0728,-0.0352,0.9971,0.00,0.00,-0.12,-3.49,4.88,-15.50
138.345622,-0.0713,-0.0356,0.9976,-0.06,0.00,-0.18,-3.49,4.88,-15.50
138.345622,-0.0723,-0.0352,0.9971,-0.06,0.06,-0.18,-3.49,4.88,-15.50
138.376393,-0.0713,-0.0352,0.9976,0.00,0.00,-0.18,-3.49,4.88,-15.50
138.376393,-0.0718,-0.0352,0.9980,-0.06,0.00,-0.18,-3.49,4.88,-15.50
138.436330,-0.0723,-0.0352,0.9980,-0.06,0.06,-0.18,-3.49,4.88,-15.50
138.436330,-0.0713,-0.0347,0.9966,0.00,0.00,-0.18,-3.49,4.88,-15.50
138.465698,-0.0713,-0.0356,0.9976,-0.06,0.00,-0.12,-3.49,4.88,-15.50
138.465698,-0.0708,-0.0352,0.9980,-0.06,0.00,-0.12,-3.49,4.88,-15.50
138.496408,-0.0713,-0.0352,0.9971,-0.06,0.00,-0.12,-3.49,4.88,-15.50
138.496408,-0.0713,-0.0352,0.9966,-0.06,0.00,-0.18,-3.49,4.88,-15.50
138.556456,-0.0718,-0.0347,0.9976,-0.06,0.00,-0.18,-3.49,4.88,-15.50
138.556456,-0.0718,-0.0352,0.9971,-0.06,0.00,-0.06,-3.49,4.88,-15.50
138.585726,-0.0713,-0.0342,0.9971,-0.06,0.00,-0.18,-3.49,4.88,-15.50
138.585726,-0.0713,-0.0352,0.9976,0.00,0.00,-0.18,-3.49,4.88,-15.50
138.616952,-0.0713,-0.0356,0.9971,-0.06,0.00,-0.18,-3.49,4.88,-15.50
138.616952,-0.0713,-0.0352,0.9966,0.00,0.00,-0.18,-3.49,4.88,-15.50
138.676548,-0.0718,-0.0347,0.9971,0.00,0.00,-0.18,-3.49,4.88,-15.50
138.676548,-0.0713,-0.0356,0.9966,0.00,0.00,-0.12,-3.49,4.88,-15.50
138.706063,-0.0723,-0.0347,0.9966,0.00,0.00,-0.18,-3.49,4.88,-15.50
138.706063,-0.0713,-0.0352,0.9966,-0.06,0.00,-0.18,-3.49,4.88,-15.50
138.736341,-0.0713,-0.0356,0.9966,-0.06,0.00,-0.12,-3.49,4.88,-15.50
138.736341,-0.0713,-0.0356,0.9971,0.00,0.00,-0.18,-3.49,4.88,-15.50
138.796439,-0.0718,-0.0356,0.9961,0.00,0.00,-0.12,-3.49,4.88,-15.50
138.796439,-0.0713,-0.0347,0.9966,-0.06,0.00,-0.18,-3.49,4.88,-15.50
138.825630,-0.0718,-0.0347,0.9971,0.00,0.00,-0.12,-3.49,4.88,-15.50
138.825630,-0.0718,-0.0347,0.9966,-0.06,0.00,-0.12,-3.49,4.88,-15.50
138.886415,-0.0718,-0.0352,0.9976,-0.06,0.00,-0.18,-3.49,4.88,-15.50
138.886415,-0.0718,-0.0356,0.9961,0.00,0.00,-0.18,-3.49,4.88,-15.50
138.915911,-0.0713,-0.0361,0.9971,-0.06,0.00,-0.18,-3.49,4.88,-15.50
138.915911,-0.0703,-0.0352,0.9976,-0.06,0.00,-0.18,-3.49,4.88,-15.50
138.946408,-0.0708,-0.0361,0.9971,-0.06,0.00,-0.12,-3.49,4.88,-15.50
138.946408,-0.0713,-0.0356,0.9966,-0.06,0.00,-0.12,-3.49,4.88,-15.50
139.006814,-0.0713,-0.0352,0.9971,0.00,0.00,-0.12,-3.49,4.88,-15.50
139.006814,-0.0708,-0.0347,0.9976,0.00,0.00,-0.12,-3.49,4.88,-15.50
139.036355,-0.0718,-0.0352,0.9961,0.00,0.06,-0.18,-3.49,4.88,-15.50
139.036355,-0.0718,-0.0361,0.9971,0.00,0.00,-0.18,-3.49,4.88,-15.50
139.065707,-0.0713,-0.0352,0.9971,-0.06,0.00,-0.18,-3.49,4.88,-15.50
139.065707,-0.0723,-0.0356,0.9961,-0.06,0.00,-0.18,-3.49,4.88,-15.50
139.126436,-0.0718,-0.0352,0.9976,0.00,0.00,-0.18,-3.49,4.88,-15.50
139.126436,-0.0713,-0.0356,0.9971,-0.06,0.00,-0.12,-3.49,4.88,-15.50
139.155595,-0.0723,-0.0352,0.9976,-0.06,0.00,-0.18,-3.49,4.88,-15.50
139.155595,-0.0713,-0.0347,0.9976,0.00,0.00,-0.12,-3.49,4.88,-15.50
139.186387,-0.0713,-0.0347,0.9971,-0.06,0.00,-0.18,-3.49,4.88,-15.50
139.186387,-0.0718,-0.0347,0.9971,0.00,0.00,-0.18,-3.49,4.88,-15.50
139.246343,-0.0713,-0.0356,0.9976,0.00,0.00,-0.18,-3.49,4.88,-15.50
139.246343,-0.0713,-0.0347,0.9976,0.00,0.00,-0.24,-3.49,4.88,-15.50
139.275617,-0.0718,-0.0356,0.9980,0.00,0.00,-0.18,-3.49,4.88,-15.50
139.275617,-0.0713,-0.0347,0.9976,0.00,0.00,-0.18,-3.49,4.88,-15.50
139.305722,-0.0713,-0.0356,0.9976,-0.06,0.00,-0.12,-3.49,4.88,-15.50
139.305722,-0.0723,-0.0347,0.9971,0.00,0.00,-0.12,-3.49,4.88,-15.50
139.366460,-0.0718,-0.0347,0.9971,-0.06,0.00,-0.12,-3.49,4.88,-15.50
139.366460,-0.0718,-0.0356,0.9966,-0.06,0.00,-0.12,-3.49,4.88,-15.50
139.395715,-0.0718,-0.0356,0.9971,0.00,0.00,-0.18,-3.49,4.88,-15.50
139.395715,-0.0713,-0.0361,0.9966,0.00,0.00,-0.12,-3.49,4.88,-15.50
139.426444,-0.0718,-0.0356,0.9980,-0.06,0.00,-0.12,-3.49,4.88,-15.50
139.426444,-0.0708,-0.0342,0.9961,0.00,0.00,-0.12,-3.49,4.88,-15.50
139.486432,-0.0718,-0.0356,0.9961,0.00,0.00,-0.18,-3.49,4.88,-15.50
139.486432,-0.0723,-0.0352,0.9976,0.00,0.00,-0.18,-3.49,4.88,-15.50
139.516150,-0.0713,-0.0361,0.9971,-0.06,0.00,-0.18,-3.49,4.88,-15.50
