t,ax,ay,az,gx,gy,gz,wx,wy,wz
-0.000286,0.1494,-0.0645,0.9800,-0.67,-0.85,-0.24,-9.19,-7.83,-37.97
-0.000286,0.1509,-0.0679,0.9766,-0.49,-0.12,0.06,-9.17,-7.83,-37.95
-0.000259,0.1514,-0.0703,0.9849,-0.43,0.24,0.00,-9.16,-7.83,-37.95
-0.000259,0.1479,-0.0708,0.9932,0.24,0.43,0.00,-9.15,-7.83,-37.94
0.046457,0.1436,-0.0659,0.9878,1.16,0.31,0.18,-9.14,-7.83,-37.92
0.046457,0.1436,-0.0601,0.9800,0.37,0.06,-0.06,-9.12,-7.82,-37.91
0.046480,0.1426,-0.0605,0.9824,0.43,0.24,0.37,-9.11,-7.82,-37.90
0.046480,0.1411,-0.0615,0.9863,0.85,0.24,0.98,-9.10,-7.82,-37.89
0.100203,0.1465,-0.0679,0.9854,0.55,0.37,1.10,-9.08,-7.82,-37.88
0.100203,0.1484,-0.0679,0.9834,0.67,0.49,0.98,-9.06,-7.82,-37.87
0.130455,0.1465,-0.0625,0.9849,0.06,0.43,0.00,-9.05,-7.82,-37.86
0.130455,0.1401,-0.0615,0.9878,0.00,0.00,-0.18,-9.04,-7.82,-37.85
0.159440,0.1401,-0.0625,0.9868,-1.53,-0.67,-0.73,-9.02,-7.82,-37.84
0.159440,0.1440,-0.0620,0.9810,0.06,-0.31,0.79,-9.01,-7.82,-37.83
0.220430,0.1465,-0.0659,0.9839,0.00,-0.12,0.79,-8.99,-7.81,-37.81
0.220430,0.1494,-0.0674,0.9873,-0.79,-0.55,0.00,-8.98,-7.81,-37.80
0.249867,0.1548,-0.0688,0.9819,-1.04,-0.49,-0.79,-8.96,-7.81,-37.79
0.249867,0.1475,-0.0679,0.9863,-0.73,0.06,-0.79,-8.94,-7.81,-37.79
0.279357,0.1411,-0.0640,0.9873,0.61,0.06,0.18,-8.93,-7.81,-37.78
0.279357,0.1382,-0.0601,0.9873,0.18,-0.18,0.31,-8.91,-7.81,-37.77
0.340782,0.1440,-0.0605,0.9824,0.43,-0.24,0.85,-8.89,-7.81,-37.75
0.340782,0.1499,-0.0654,0.9810,0.43,0.12,0.98,-8.88,-7.81,-37.74
0.369938,0.1514,-0.0684,0.9854,-0.49,-0.06,0.00,-8.86,-7.81,-37.73
0.369938,0.1479,-0.0703,0.9897,-0.49,-0.24,-0.37,-8.84,-7.80,-37.72
0.400316,0.1475,-0.0698,0.9897,0.00,-0.12,-0.12,-8.83,-7.80,-37.71
0.400316,0.1460,-0.0620,0.9810,-0.61,-0.55,-0.92,-8.81,-7.80,-37.70
0.460376,0.1475,-0.0615,0.9805,-1.46,-0.61,-1.10,-8.79,-7.80,-37.69
0.460376,0.1465,-0.0630,0.9844,-2.01,-0.61,-1.22,-8.78,-7.79,-37.68
0.496338,0.1475,-0.0674,0.9863,-1.59,-0.55,-0.92,-8.76,-7.79,-37.67
0.496338,0.1470,-0.0732,0.9907,-1.22,-0.37,-0.98,-8.75,-7.79,-37.66
0.520423,0.1528,-0.0693,0.9844,-0.24,0.00,-0.55,-8.73,-7.79,-37.64
0.520423,0.1504,-0.0698,0.9868,0.55,0.37,0.00,-8.71,-7.79,-37.63
0.580317,0.1504,-0.0679,0.9814,-0.31,0.18,-0.85,-8.70,-7.79,-37.62
0.580317,0.1465,-0.0664,0.9858,-2.01,-0.12,-1.77,-8.68,-7.79,-37.62
0.609657,0.1436,-0.0708,0.9922,-0.85,-0.18,-0.85,-8.71,-7.79,-37.63
0.609657,0.1489,-0.0688,0.9849,0.24,0.00,-0.43,-8.71,-7.79,-37.62
0.640628,0.1465,-0.0649,0.9829,-1.77,-0.43,-1.77,-8.72,-7.80,-37.63
0.640628,0.1445,-0.0620,0.9824,-1.89,-0.67,-1.71,-8.76,-7.82,-37.66
0.700435,0.1465,-0.0674,0.9834,0.12,0.06,-0.31,-8.78,-7.83,-37.66
0.700435,0.1460,-0.0630,0.9844,-0.12,0.00,-0.37,-8.78,-7.82,-37.65
0.729650,0.1479,-0.0684,0.9844,-0.49,-0.49,-0.61,-8.79,-7.83,-37.65
0.729650,0.1533,-0.0723,0.9844,-0.61,-0.12,-0.79,-8.80,-7.84,-37.65
0.760400,0.1489,-0.0708,0.9878,0.43,0.49,-0.06,-8.80,-7.83,-37.64
0.760400,0.1436,-0.0669,0.9888,0.18,0.12,-0.37,-8.79,-7.83,-37.63
0.820457,0.1465,-0.0679,0.9824,0.00,-0.12,-0.43,-8.78,-7.83,-37.63
0.820457,0.1475,-0.0635,0.9805,-1.89,-0.73,-1.40,-8.81,-7.84,-37.64
0.850264,0.1494,-0.0679,0.9868,-3.05,-0.85,-2.01,-8.86,-7.87,-37.66
0.850264,0.1484,-0.0728,0.9902,-0.73,-0.31,-0.85,-8.90,-7.88,-37.67
0.879512,0.1504,-0.0703,0.9834,0.73,0.18,-0.06,-8.89,-7.88,-37.67
0.879512,0.1479,-0.0659,0.9795,0.73,0.31,0.24,-8.89,-7.87,-37.66
0.940695,0.1450,-0.0649,0.9824,0.31,0.18,0.24,-8.89,-7.87,-37.64
0.940695,0.1470,-0.0708,0.9888,0.55,0.31,0.49,-8.88,-7.86,-37.62
0.969796,0.1494,-0.0742,0.9902,1.16,0.43,0.49,-8.85,-7.85,-37.58
0.969796,0.1494,-0.0698,0.9824,0.24,0.12,0.00,-8.84,-7.84,-37.57
1.000338,0.1445,-0.0625,0.9849,-2.01,-0.79,-1.77,-8.87,-7.85,-37.57
1.000338,0.1460,-0.0659,0.9824,-0.79,-0.31,-0.73,-8.89,-7.86,-37.58
1.060243,0.1494,-0.0693,0.9834,-0.49,0.00,-0.31,-8.90,-7.87,-37.58
1.060243,0.1479,-0.0728,0.9912,-0.12,-0.12,-0.12,-8.92,-7.87,-37.57
1.089529,0.1519,-0.0708,0.9849,-0.43,-0.18,-0.55,-8.92,-7.87,-37.57
1.089529,0.1504,-0.0664,0.9805,0.31,0.00,-0.49,-8.92,-7.88,-37.56
1.120246,0.1475,-0.0659,0.9814,-1.83,-0.31,-1.53,-8.94,-7.88,-37.57
1.120246,0.1440,-0.0713,0.9902,-2.50,-0.55,-1.59,-8.98,-7.89,-37.59
1.180235,0.1445,-0.0669,0.9893,-0.98,-0.37,-0.61,-9.02,-7.90,-37.60
1.180235,0.1484,-0.0708,0.9844,-0.31,-0.31,0.00,-9.03,-7.92,-37.59
1.209455,0.1548,-0.0684,0.9761,0.00,0.00,0.06,-9.04,-7.92,-37.57
1.209455,0.1499,-0.0703,0.9805,-2.26,-0.24,-1.34,-9.06,-7.92,-37.57
1.270573,0.1440,-0.0698,0.9893,-1.89,-0.43,-1.16,-9.11,-7.93,-37.59
1.270573,0.1484,-0.0762,0.9888,-1.65,-0.55,-1.04,-9.14,-7.95,-37.60
1.299507,0.1514,-0.0757,0.9844,0.06,-0.12,0.06,-9.16,-7.95,-37.59
1.299507,0.1533,-0.0713,0.9814,-0.06,-0.37,-0.37,-9.16,-7.96,-37.57
1.330346,0.1499,-0.0698,0.9849,0.31,0.06,0.00,-9.17,-7.97,-37.57
1.330346,0.1509,-0.0723,0.9868,-0.06,0.00,-0.24,-9.17,-7.96,-37.56
1.390892,0.1479,-0.0708,0.9839,-0.24,-0.12,-0.24,-9.16,-7.96,-37.55
1.390892,0.1514,-0.0723,0.9800,0.61,0.31,0.61,-9.16,-7.96,-37.53
1.420569,0.1499,-0.0713,0.9863,0.98,0.73,0.67,-9.15,-7.94,-37.51
1.420569,0.1465,-0.0684,0.9863,0.61,0.31,0.24,-9.15,-7.93,-37.49
1.451366,0.1489,-0.0723,0.9878,-0.18,-0.31,-0.61,-9.14,-7.93,-37.48
1.451366,0.1499,-0.0708,0.9839,-0.92,-0.24,-0.79,-9.16,-7.94,-37.49
1.510428,0.1494,-0.0693,0.9834,-1.10,0.06,-0.55,-9.17,-7.95,-37.49
1.510428,0.1499,-0.0723,0.9849,-0.24,0.06,-0.49,-9.20,-7.95,-37.49
1.539756,0.1519,-0.0737,0.9878,-0.73,0.00,-0.98,-9.20,-7.95,-37.49
1.539756,0.1514,-0.0757,0.9854,0.24,0.67,-0.12,-9.19,-7.94,-37.48
1.569866,0.1494,-0.0688,0.9814,2.26,1.04,0.98,-9.16,-7.92,-37.46
1.569866,0.1431,-0.0645,0.9854,0.98,0.49,0.24,-9.14,-7.90,-37.44
1.630384,0.1440,-0.0659,0.9863,-0.85,-0.37,-0.49,-9.14,-7.90,-37.42
1.630384,0.1499,-0.0728,0.9858,-2.14,-1.04,-1.53,-9.18,-7.92,-37.44
1.659483,0.1567,-0.0771,0.9849,-1.28,-0.31,-1.10,-9.21,-7.93,-37.45
1.659483,0.1523,-0.0713,0.9829,-0.73,0.06,-0.79,-9.23,-7.94,-37.45
1.690252,0.1484,-0.0728,0.9849,0.24,0.37,-0.24,-9.22,-7.93,-37.44
1.690252,0.1431,-0.0664,0.9849,-0.92,-0.37,-1.16,-9.23,-7.93,-37.44
1.750269,0.1445,-0.0693,0.9839,-0.43,-0.18,0.00,-9.26,-7.94,-37.45
1.750269,0.1523,-0.0718,0.9839,1.34,0.37,1.22,-9.25,-7.93,-37.41
1.779444,0.1548,-0.0762,0.9863,1.53,0.61,0.85,-9.22,-7.92,-37.38
1.779444,0.1523,-0.0776,0.9893,-1.65,-0.06,-1.46,-9.22,-7.92,-37.38
1.812201,0.1499,-0.0762,0.9878,-1.65,-0.31,-1.59,-9.26,-7.93,-37.40
1.812201,0.1514,-0.0684,0.9810,1.22,0.61,0.00,-9.26,-7.93,-37.40
1.870628,0.1465,-0.0674,0.9824,1.46,0.55,0.49,-9.24,-7.91,-37.38
1.870628,0.1470,-0.0684,0.9829,0.00,0.12,-0.31,-9.22,-7.90,-37.37
1.899540,0.1455,-0.0693,0.9858,-0.79,-0.12,-0.67,-9.24,-7.90,-37.37
1.899540,0.1450,-0.0698,0.9873,-0.79,-0.37,-0.92,-9.26,-7.92,-37.38
1.930296,0.1494,-0.0713,0.9824,0.06,0.12,-0.12,-9.27,-7.92,-37.38
1.930296,0.1504,-0.0703,0.9814,-1.95,-0.43,-1.22,-9.28,-7.92,-37.36
1.990351,0.1533,-0.0767,0.9829,-2.26,-0.31,-1.59,-9.32,-7.94,-37.38
1.990351,0.1465,-0.0708,0.9883,-0.31,0.00,-0.73,-9.35,-7.94,-37.39
2.019490,0.1455,-0.0718,0.9873,-0.31,0.18,-0.24,-9.35,-7.94,-37.39
2.019490,0.1479,-0.0674,0.9795,-0.18,-0.18,-0.06,-9.35,-7.94,-37.38
2.050288,0.1523,-0.0786,0.9834,-0.06,0.00,0.06,-9.37,-7.94,-37.36
2.050288,0.1523,-0.0762,0.9873,0.24,0.24,-0.06,-9.37,-7.94,-37.35
2.110507,0.1489,-0.0767,0.9878,0.98,0.55,0.43,-9.35,-7.93,-37.34
2.110507,0.1484,-0.0698,0.9834,0.49,0.00,-0.18,-9.34,-7.93,-37.32
2.139869,0.1499,-0.0703,0.9805,1.04,0.24,0.24,-9.33,-7.92,-37.31
2.139869,0.1465,-0.0684,0.9805,0.31,0.24,0.24,-9.32,-7.92,-37.29
2.169866,0.1440,-0.0688,0.9868,-1.28,-0.49,-0.79,-9.33,-7.92,-37.28
2.169866,0.1470,-0.0698,0.9863,0.00,-0.18,-0.06,-9.35,-7.93,-37.28
2.230335,0.1514,-0.0693,0.9795,-0.37,-0.18,-0.06,-9.35,-7.93,-37.27
2.230335,0.1528,-0.0684,0.9756,-0.61,0.00,-0.49,-9.37,-7.93,-37.27
2.259744,0.1509,-0.0747,0.9834,0.37,0.61,0.37,-9.38,-7.93,-37.26
2.259744,0.1470,-0.0771,0.9941,0.79,0.61,0.61,-9.37,-7.91,-37.23
2.331672,0.1484,-0.0742,0.9883,0.12,0.06,0.00,-9.37,-7.90,-37.21
2.331672,0.1538,-0.0698,0.9785,0.18,0.12,-0.37,-9.36,-7.90,-37.21
2.350363,0.1523,-0.0713,0.9819,-0.12,0.12,-0.67,-9.37,-7.90,-37.21
2.350363,0.1455,-0.0723,0.9849,0.43,0.73,0.00,-9.36,-7.89,-37.20
2.379586,0.1431,-0.0698,0.9893,0.73,0.67,0.24,-9.34,-7.87,-37.18
2.379586,0.1416,-0.0649,0.9863,1.89,0.24,0.73,-9.32,-7.86,-37.16
2.410417,0.1484,-0.0654,0.9785,1.28,0.31,0.98,-9.30,-7.86,-37.13
2.410417,0.1499,-0.0718,0.9829,-0.18,0.24,0.31,-9.29,-7.84,-37.10
2.500630,0.1489,-0.0713,0.9854,0.92,0.67,0.85,-9.28,-7.83,-37.07
2.500630,0.1470,-0.0703,0.9858,2.14,0.92,1.46,-9.26,-7.81,-37.04
2.502440,0.1470,-0.0688,0.9878,1.04,0.67,0.79,-9.23,-7.79,-37.01
2.502440,0.1455,-0.0674,0.9858,1.28,0.67,0.92,-9.22,-7.78,-36.97
2.532427,0.1460,-0.0688,0.9863,-0.06,0.18,-0.12,-9.20,-7.77,-36.95
2.532427,0.1401,-0.0693,0.9902,-2.62,-0.79,-1.59,-9.22,-7.77,-36.95
2.590514,0.1460,-0.0649,0.9844,-1.71,-0.92,-0.55,-9.26,-7.79,-36.96
2.590514,0.1543,-0.0713,0.9805,1.28,0.24,1.28,-9.27,-7.80,-36.93
2.620563,0.1519,-0.0713,0.9839,0.43,0.43,-0.06,-9.24,-7.78,-36.90
2.620563,0.1431,-0.0713,0.9902,-1.71,-0.43,-1.22,-9.26,-7.79,-36.90
2.680894,0.1450,-0.0693,0.9878,-0.55,-0.49,-0.49,-9.28,-7.79,-36.90
2.680894,0.1460,-0.0615,0.9819,-0.67,-0.49,-0.67,-9.30,-7.81,-36.90
2.710212,0.1445,-0.0674,0.9854,-0.24,-0.24,0.12,-9.31,-7.82,-36.89
2.710212,0.1533,-0.0723,0.9814,-0.43,-0.37,-0.18,-9.33,-7.83,-36.88
2.740818,0.1514,-0.0728,0.9854,-0.55,0.00,-0.79,-9.34,-7.84,-36.88
2.740818,0.1416,-0.0684,0.9893,-1.40,-0.49,-1.28,-9.36,-7.84,-36.89
2.800414,0.1440,-0.0669,0.9824,-0.67,-0.43,-0.55,-9.39,-7.86,-36.90
2.800414,0.1421,-0.0620,0.9800,1.83,0.49,0.98,-9.38,-7.85,-36.88
2.832399,0.1367,-0.0566,0.9814,-0.31,-0.24,1.28,-9.35,-7.84,-36.83
2.832399,0.1587,-0.0776,0.9854,-1.59,-0.98,0.24,-9.38,-7.86,-36.80
2.860619,0.1587,-0.0830,0.9888,-0.73,0.12,-0.18,-9.40,-7.86,-36.78
2.860619,0.1514,-0.0742,0.9854,2.50,0.85,1.28,-9.38,-7.85,-36.76
2.920597,0.1479,-0.0703,0.9863,0.79,0.31,0.12,-9.35,-7.83,-36.74
2.920597,0.1475,-0.0645,0.9785,-0.49,0.12,-0.55,-9.34,-7.83,-36.73
2.949618,0.1396,-0.0601,0.9849,-2.08,-0.85,-1.40,-9.38,-7.84,-36.73
2.949618,0.1450,-0.0703,0.9897,-1.16,-1.10,-0.06,-9.41,-7.86,-36.73
2.980304,0.1587,-0.0820,0.9863,-0.06,-0.43,0.31,-9.43,-7.88,-36.71
2.980304,0.1587,-0.0742,0.9810,-0.61,-0.31,-0.92,-9.43,-7.89,-36.71
3.041067,0.1587,-0.0796,0.9824,-2.01,-0.61,-2.08,-9.46,-7.90,-36.72
3.041067,0.1582,-0.0786,0.9800,0.79,0.73,-0.73,-9.48,-7.91,-36.74
3.072758,0.1455,-0.0659,0.9839,2.26,1.16,0.24,-9.45,-7.89,-36.74
3.072758,0.1372,-0.0640,0.9878,1.10,0.43,-0.24,-9.42,-7.87,-36.73
3.102409,0.1440,-0.0649,0.9854,2.38,0.73,1.22,-9.39,-7.86,-36.71
3.102409,0.1519,-0.0698,0.9858,3.48,1.28,2.08,-9.33,-7.83,-36.66
3.160313,0.1543,-0.0728,0.9854,1.59,1.04,0.43,-9.29,-7.81,-36.62
3.160313,0.1558,-0.0737,0.9854,-0.49,0.61,-1.53,-9.28,-7.79,-36.62
3.189530,0.1479,-0.0718,0.9863,2.01,1.83,-0.24,-9.27,-7.77,-36.64
3.189530,0.1421,-0.0630,0.9878,3.36,2.08,0.31,-9.22,-7.73,-36.63
3.220320,0.1323,-0.0522,0.9849,2.69,1.71,0.00,-9.16,-7.70,-36.62
3.220320,0.1245,-0.0430,0.9805,2.14,1.34,0.43,-9.12,-7.66,-36.61
3.280576,0.1191,-0.0410,0.9805,0.79,0.67,1.22,-9.09,-7.64,-36.58
3.280576,0.1240,-0.0464,0.9868,0.43,0.49,2.62,-9.09,-7.62,-36.52
3.309578,0.1313,-0.0542,0.9912,-0.06,-0.31,2.50,-9.09,-7.61,-36.45
3.309578,0.1401,-0.0625,0.9912,0.06,-0.67,2.75,-9.11,-7.61,-36.39
3.340637,0.1465,-0.0640,0.9902,2.62,-0.49,4.09,-9.11,-7.62,-36.32
3.340637,0.1533,-0.0679,0.9829,-1.22,-1.04,1.53,-9.09,-7.62,-36.23
3.400709,0.1562,-0.0684,0.9800,0.00,-1.04,1.95,-9.11,-7.64,-36.18
3.400709,0.1543,-0.0732,0.9902,-1.10,-1.16,0.92,-9.13,-7.66,-36.13
3.429517,0.1553,-0.0728,0.9858,-0.61,-1.22,0.18,-9.15,-7.68,-36.11
3.429517,0.1494,-0.0679,0.9824,0.43,-0.43,0.67,-9.15,-7.70,-36.08
3.460348,0.1421,-0.0586,0.9834,0.73,-0.24,1.16,-9.14,-7.70,-36.04
3.460348,0.1382,-0.0537,0.9844,-0.55,-0.73,0.61,-9.14,-7.71,-36.01
3.520348,0.1396,-0.0576,0.9854,-1.28,-1.28,0.67,-9.17,-7.72,-35.99
3.520348,0.1499,-0.0669,0.9849,0.67,-0.55,1.95,-9.18,-7.74,-35.94
3.549487,0.1587,-0.0718,0.9810,1.40,0.00,2.08,-9.17,-7.74,-35.89
3.549487,0.1636,-0.0762,0.9849,0.37,0.43,0.79,-9.16,-7.73,-35.84
3.581204,0.1621,-0.0781,0.9878,0.18,1.04,-0.18,-9.16,-7.71,-35.83
3.581204,0.1509,-0.0693,0.9893,1.53,1.77,0.24,-9.14,-7.68,-35.82
3.640779,0.1406,-0.0645,0.9907,3.66,1.89,1.16,-9.07,-7.64,-35.79
3.640779,0.1421,-0.0571,0.9863,3.78,1.53,1.59,-9.01,-7.60,-35.76
3.670150,0.1475,-0.0601,0.9849,2.93,2.14,1.65,-8.96,-7.56,-35.71
3.670150,0.1431,-0.0581,0.9844,3.23,2.32,1.71,-8.90,-7.51,-35.67
3.699543,0.1396,-0.0527,0.9863,2.69,1.77,0.73,-8.84,-7.47,-35.63
3.699543,0.1357,-0.0552,0.9932,1.59,1.10,0.00,-8.81,-7.44,-35.62
3.760370,0.1406,-0.0605,0.9868,3.11,1.22,1.22,-8.76,-7.42,-35.60
3.760370,0.1475,-0.0532,0.9766,4.21,1.53,1.77,-8.69,-7.38,-35.56
3.789543,0.1445,-0.0532,0.9805,1.28,1.59,-0.06,-8.65,-7.34,-35.54
3.789543,0.1382,-0.0508,0.9888,1.22,1.65,-0.12,-8.62,-7.31,-35.52
3.822316,0.1318,-0.0562,0.9980,2.44,1.53,0.85,-8.59,-7.28,-35.51
3.822316,0.1367,-0.0493,0.9849,1.83,1.10,0.06,-8.53,-7.25,-35.48
3.880347,0.1372,-0.0430,0.9746,1.28,0.73,-0.24,-8.51,-7.23,-35.48
3.880347,0.1328,-0.0464,0.9878,-1.28,0.37,-0.92,-8.51,-7.22,-35.47
3.909576,0.1313,-0.0459,0.9932,-1.46,-0.43,-0.61,-8.54,-7.22,-35.47
3.909576,0.1416,-0.0537,0.9844,0.92,-0.18,0.37,-8.55,-7.23,-35.47
3.940594,0.1450,-0.0557,0.9839,-0.18,0.12,-0.37,-8.54,-7.23,-35.46
3.940594,0.1406,-0.0527,0.9873,-0.12,0.73,-0.06,-8.55,-7.22,-35.45
4.030848,0.1367,-0.0532,0.9937,0.98,1.16,-0.24,-8.54,-7.20,-35.45
4.030848,0.1333,-0.0493,0.9932,0.92,0.55,-0.55,-8.52,-7.19,-35.45
4.034480,0.1367,-0.0503,0.9878,0.00,0.55,-0.37,-8.51,-7.17,-35.44
4.034480,0.1357,-0.0527,0.9902,2.93,0.98,0.85,-8.48,-7.16,-35.42
4.090400,0.1372,-0.0571,0.9946,5.92,1.53,2.20,-8.38,-7.12,-35.37
4.090400,0.1284,-0.0396,0.9902,6.29,1.04,2.20,-8.26,-7.09,-35.31
4.119567,0.1289,-0.0361,0.9844,5.92,0.43,2.01,-8.15,-7.07,-35.26
4.119567,0.1338,-0.0405,0.9863,9.83,1.16,4.82,-8.01,-7.05,-35.18
4.150311,0.1343,-0.0337,0.9878,13.55,0.73,5.86,-7.79,-7.01,-35.06
4.150311,0.1367,-0.0332,0.9927,17.21,-0.06,5.43,-7.49,-6.99,-34.94
4.210424,0.1372,-0.0327,0.9976,21.97,-0.31,5.86,-7.12,-6.99,-34.81
4.210424,0.1362,-0.0195,0.9897,21.00,-1.10,4.64,-6.69,-6.99,-34.68
4.239963,0.1343,-0.0044,0.9756,10.80,-2.38,0.00,-6.38,-7.02,-34.62
4.239963,0.1323,-0.0112,0.9888,9.77,-1.16,0.18,-6.13,-7.05,-34.61
4.270153,0.1348,-0.0029,0.9839,6.71,-0.18,0.49,-5.99,-7.07,-34.60
4.270153,0.1348,-0.0029,0.9902,2.01,-0.55,0.73,-5.91,-7.08,-34.56
4.330461,0.1382,-0.0020,0.9897,0.43,-0.92,-0.31,-5.90,-7.09,-34.55
4.330461,0.1440,-0.0029,0.9790,4.88,-0.49,-1.89,-5.86,-7.11,-34.56
4.359609,0.1372,-0.0029,0.9902,6.29,0.18,-2.44,-5.72,-7.11,-34.58
4.359609,0.1367,0.0029,0.9912,0.18,-0.73,-4.52,-5.64,-7.12,-34.63
4.390384,0.1401,0.0024,0.9639,-2.75,0.92,-5.62,-5.67,-7.14,-34.73
4.390384,0.1133,0.0200,0.9653,2.62,6.77,-2.75,-5.65,-7.05,-34.80
4.450332,0.1030,0.0181,0.9595,-1.04,8.67,-5.49,-5.61,-6.92,-34.89
4.450332,0.1313,0.0039,0.9497,-10.01,8.73,-13.37,-5.69,-6.74,-35.05
4.479568,0.1392,-0.0063,0.9683,-1.46,13.06,-16.11,-5.82,-6.54,-35.38
4.479568,0.1997,-0.0010,0.8511,38.57,17.03,0.12,-5.41,-6.20,-35.55
4.510328,0.2095,-0.0015,0.9424,84.05,22.64,20.81,-4.10,-5.82,-35.32
4.510328,0.1514,0.0913,0.9282,103.39,20.69,37.11,-2.21,-5.36,-34.67
4.570742,0.1387,0.0562,0.8809,105.59,25.33,26.12,-0.34,-4.87,-34.04
4.570742,0.0298,0.1543,1.0840,85.14,20.94,6.41,1.88,-4.32,-33.66
4.600521,0.0098,0.1704,1.0034,1.53,5.19,-1.65,2.52,-3.98,-33.69
4.600521,0.0220,0.1270,1.0684,-33.08,12.02,6.04,2.14,-3.85,-33.68
4.630347,0.0200,0.1157,1.0562,-22.89,8.79,23.13,1.61,-3.63,-33.33
4.630347,0.0649,0.1304,1.0439,-23.01,10.13,26.25,1.13,-3.49,-32.81
4.690345,0.0957,0.0884,1.0049,-18.74,7.93,27.47,0.77,-3.31,-32.18
4.690345,0.1030,0.0723,0.9937,-53.10,-2.69,2.20,-0.02,-3.27,-31.91
4.719543,0.1030,0.0640,0.9536,-47.30,1.16,4.39,-1.10,-3.31,-31.87
4.719543,0.0552,0.0757,0.9990,-29.60,6.16,13.31,-1.87,-3.22,-31.67
4.750590,0.0596,0.0781,0.9858,-14.10,6.29,16.54,-2.30,-3.09,-31.35
4.750590,0.0508,0.0889,0.9785,-18.37,3.36,10.80,-2.60,-2.98,-31.06
4.810568,0.0527,0.0835,0.9600,-38.51,-1.28,6.29,-3.19,-2.96,-30.89
4.810568,0.0151,0.0825,1.0107,-45.35,-2.38,13.37,-4.03,-2.96,-30.68
4.839977,0.0557,0.0000,1.0044,-39.92,-2.75,14.83,-4.87,-3.01,-30.34
4.839977,0.0654,-0.0137,1.0264,-27.04,-8.06,9.03,-5.55,-3.10,-30.07
4.869875,0.0840,-0.0420,1.0298,-25.33,-21.97,-3.23,-6.04,-3.39,-29.98
4.869875,0.1226,-0.0439,0.9775,-23.38,-27.04,-10.50,-6.51,-3.92,-30.07
4.930493,0.1616,-0.0605,0.9497,-16.11,-13.98,-10.74,-6.94,-4.35,-30.27
4.930493,0.2119,-0.0747,0.9189,-2.87,4.82,-7.32,-7.07,-4.45,-30.40
4.959660,0.2051,-0.0508,0.9111,-2.81,21.00,-8.79,-7.11,-4.18,-30.60
4.959660,0.1040,-0.0596,0.9878,-6.29,25.02,-11.54,-7.17,-3.72,-30.83
4.990510,-0.0264,-0.0332,1.1357,-6.90,20.32,-15.44,-7.29,-3.27,-31.16
4.990510,-0.0664,-0.0186,1.1562,1.04,2.87,-5.00,-7.32,-3.04,-31.37
5.050404,-0.0107,-0.0132,1.0610,-3.17,-17.46,4.21,-7.39,-3.24,-31.34
5.050404,0.0728,0.0117,0.9111,-18.55,-17.76,6.16,-7.60,-3.59,-31.17
5.079645,0.1045,-0.0054,0.8901,-17.09,-3.48,6.35,-8.03,-3.78,-31.01
5.079645,0.1353,-0.0566,0.9756,-11.66,5.68,5.62,-8.18,-3.76,-30.87
5.110478,0.1069,-0.0366,1.0254,-12.88,9.46,1.95,-8.55,-3.62,-30.77
5.110478,0.1108,-0.1426,1.0400,3.36,8.67,-1.10,-8.62,-3.44,-30.77
5.170631,0.0864,-0.0884,1.0376,1.04,10.07,-7.75,-8.56,-3.25,-30.88
5.170631,0.0747,-0.0542,0.9932,-5.86,1.34,-8.85,-8.59,-3.17,-31.05
5.199609,0.0615,-0.0464,0.9863,-10.19,2.20,-12.08,-8.72,-3.18,-31.24
5.199609,0.0503,-0.0195,0.9771,-9.22,6.04,-10.38,-8.95,-3.10,-31.50
5.230851,0.0303,-0.0200,0.9834,4.27,7.87,1.16,-8.94,-2.98,-31.57
5.230851,0.0449,-0.0410,1.0107,5.07,1.95,1.65,-8.82,-2.87,-31.53
5.290523,0.0552,-0.0620,1.0107,-5.92,-1.89,-5.19,-8.81,-2.89,-31.55
5.290523,0.0786,-0.0571,0.9761,5.07,0.18,1.71,-8.83,-2.92,-31.57
5.319735,0.0776,-0.0640,0.9917,7.14,2.69,2.26,-8.68,-2.88,-31.51
5.319735,0.0698,-0.0566,0.9902,5.49,4.27,1.71,-8.56,-2.81,-31.48
5.350447,0.0527,-0.0566,1.0068,8.91,5.55,5.68,-8.40,-2.69,-31.40
5.350447,0.0630,-0.0659,1.0156,4.64,2.87,5.19,-8.27,-2.61,-31.27
5.410418,0.0513,-0.0562,1.0137,5.13,4.03,3.97,-8.15,-2.52,-31.17
5.410418,0.0566,-0.0469,0.9849,2.44,4.58,3.72,-8.08,-2.43,-31.10
5.439873,0.0649,-0.0264,0.9858,8.42,4.76,5.13,-7.99,-2.32,-31.01
5.439873,0.0669,-0.0293,0.9688,3.54,3.30,0.61,-7.86,-2.24,-30.95
5.500363,0.0610,-0.0337,0.9761,0.37,4.82,-0.55,-7.82,-2.16,-30.95
5.500363,0.0469,-0.0352,0.9971,-0.92,4.64,-0.73,-7.82,-2.06,-30.97
5.529584,0.0435,-0.0488,1.0186,-2.14,2.38,-1.95,-7.86,-1.99,-31.00
5.529584,0.0552,-0.0518,1.0034,2.81,0.85,2.20,-7.84,-1.97,-30.98
5.560505,0.0601,-0.0479,0.9971,2.75,0.79,1.22,-7.77,-1.94,-30.93
5.560505,0.0518,-0.0381,0.9976,-0.67,-0.24,-2.99,-7.73,-1.93,-30.93
5.620529,0.0513,-0.0337,0.9873,-4.88,0.31,-5.55,-7.79,-1.95,-31.01
5.620529,0.0391,-0.0308,0.9956,-5.55,1.65,-5.37,-7.87,-1.93,-31.11
5.649560,0.0386,-0.0303,0.9966,-2.38,0.12,-1.71,-7.95,-1.92,-31.17
5.649560,0.0488,-0.0420,0.9946,0.85,-0.67,0.00,-7.96,-1.93,-31.17
5.680337,0.0562,-0.0469,0.9956,1.22,-0.18,-0.85,-7.94,-1.94,-31.17
5.680337,0.0537,-0.0439,0.9951,2.93,-0.06,-0.37,-7.88,-1.95,-31.17
5.740770,0.0527,-0.0513,1.0059,4.15,0.18,0.49,-7.79,-1.94,-31.15
5.740770,0.0586,-0.0508,1.0010,-0.12,-0.79,-2.01,-7.76,-1.96,-31.16
5.770062,0.0596,-0.0396,0.9863,0.61,-0.37,-2.56,-7.76,-1.98,-31.20
5.770062,0.0542,-0.0371,0.9854,1.10,0.49,-1.95,-7.71,-1.98,-31.23
5.799609,0.0439,-0.0293,0.9868,3.17,1.83,0.61,-7.65,-1.95,-31.23
5.799609,0.0415,-0.0317,0.9966,-0.24,0.49,-0.31,-7.63,-1.93,-31.21
5.860460,0.0435,-0.0405,1.0044,-0.06,0.00,0.06,-7.64,-1.93,-31.21
5.860460,0.0430,-0.0425,1.0039,-0.43,-0.06,0.06,-7.62,-1.92,-31.18
5.889636,0.0498,-0.0371,0.9980,-6.16,-2.20,-2.56,-7.71,-1.96,-31.21
5.889636,0.0586,-0.0469,0.9922,-2.50,-0.79,-0.24,-7.78,-1.99,-31.22
5.920386,0.0586,-0.0381,0.9878,4.88,1.16,4.03,-7.75,-1.98,-31.16
5.920386,0.0620,-0.0449,0.9897,1.95,1.53,2.32,-7.67,-1.94,-31.09
5.980377,0.0454,-0.0420,1.0000,0.24,0.98,0.00,-7.63,-1.91,-31.05
5.980377,0.0391,-0.0366,1.0049,-2.08,-0.24,-1.04,-7.65,-1.91,-31.05
6.009695,0.0371,-0.0386,1.0103,-5.25,-2.08,-1.95,-7.71,-1.94,-31.07
6.009695,0.0420,-0.0391,1.0034,-3.17,-1.83,-0.55,-7.79,-1.98,-31.07
6.040633,0.0498,-0.0396,0.9956,0.06,-1.83,1.40,-7.82,-2.02,-31.05
6.040633,0.0596,-0.0474,0.9902,-2.14,-1.71,0.18,-7.82,-2.05,-31.01
6.100613,0.0615,-0.0435,0.9849,-4.94,-2.20,-1.95,-7.89,-2.09,-31.02
6.100613,0.0605,-0.0469,0.9927,-5.00,-1.89,-1.65,-7.99,-2.14,-31.04
6.185096,0.0532,-0.0586,1.0059,-9.52,-2.20,-3.78,-8.12,-2.19,-31.08
6.185096,0.0508,-0.0449,0.9941,-6.23,-1.77,-2.01,-8.26,-2.23,-31.11
6.185131,0.0522,-0.0527,0.9932,-7.69,-2.50,-3.23,-8.39,-2.29,-31.15
6.185131,0.0508,-0.0518,0.9966,-7.69,-2.93,-3.91,-8.52,-2.35,-31.20
6.219475,0.0532,-0.0547,0.9961,-5.74,-2.69,-1.89,-8.65,-2.41,-31.23
6.219475,0.0566,-0.0615,1.0029,-6.90,-2.99,-2.26,-8.77,-2.47,-31.26
6.249792,0.0576,-0.0596,0.9878,-8.06,-3.05,-3.05,-8.90,-2.54,-31.29
6.249792,0.0664,-0.0610,0.9795,-3.54,-2.20,-0.37,-9.01,-2.60,-31.31
6.279744,0.0776,-0.0811,0.9819,-5.37,-1.04,-0.12,-9.09,-2.63,-31.29
6.279744,0.0767,-0.1201,0.9858,-20.87,0.98,-0.73,-9.32,-2.64,-31.31
6.340194,0.0703,-0.1152,1.0049,-33.87,4.76,10.38,-9.92,-2.56,-31.21
6.340194,0.0908,-0.1392,1.0151,-35.10,4.88,5.98,-10.57,-2.44,-31.03
6.369743,0.0679,-0.1250,1.0015,-37.84,6.90,2.99,-11.34,-2.32,-30.98
6.369743,0.0508,-0.1357,1.0015,-36.68,8.97,6.47,-12.04,-2.14,-30.89
6.399795,0.0337,-0.0874,0.9878,-31.49,6.29,2.08,-12.77,-1.97,-30.83
6.399795,0.0264,-0.0942,0.9795,-19.17,4.58,3.54,-13.26,-1.86,-30.79
6.459807,0.0215,-0.0938,0.9814,-10.74,2.93,3.72,-13.52,-1.77,-30.72
6.459807,0.0200,-0.1089,0.9858,-7.20,1.46,4.64,-13.69,-1.70,-30.64
6.489703,0.0371,-0.1294,0.9785,-7.14,-0.31,3.78,-13.83,-1.68,-30.55
6.489703,0.0454,-0.1509,0.9888,-3.78,0.00,4.46,-13.92,-1.66,-30.45
6.519870,0.0503,-0.1650,0.9897,-4.33,-1.04,3.30,-13.99,-1.65,-30.36
6.519870,0.0571,-0.1704,0.9888,-7.14,-2.14,0.37,-14.11,-1.69,-30.31
6.580166,0.0605,-0.1812,0.9897,-7.20,-1.95,-0.98,-14.25,-1.73,-30.31
6.580166,0.0483,-0.1646,0.9907,-4.82,-0.43,0.85,-14.36,-1.75,-30.29
6.610554,0.0410,-0.1494,0.9785,-3.05,-0.92,1.53,-14.43,-1.76,-30.25
6.610554,0.0444,-0.1494,0.9736,-0.61,-0.92,2.32,-14.45,-1.77,-30.20
6.640246,0.0498,-0.1592,0.9785,-1.59,-1.28,0.67,-14.47,-1.79,-30.16
6.640246,0.0571,-0.1694,0.9814,-3.60,-1.77,-1.77,-14.51,-1.82,-30.15
6.700022,0.0640,-0.1802,0.9824,-4.64,-1.59,-3.30,-14.60,-1.86,-30.19
6.700022,0.0688,-0.1875,0.9844,-1.22,-0.31,-2.56,-14.64,-1.90,-30.23
6.729842,0.0693,-0.1782,0.9775,0.61,0.61,-3.48,-14.63,-1.91,-30.28
6.729842,0.0591,-0.1768,0.9824,-2.01,0.43,-6.35,-14.62,-1.92,-30.38
6.759881,0.0503,-0.1641,0.9824,0.00,0.79,-5.98,-14.63,-1.93,-30.49
6.759881,0.0376,-0.1636,0.9927,0.12,0.37,-6.10,-14.62,-1.95,-30.61
6.819908,0.0337,-0.1528,0.9893,-2.26,-0.49,-5.86,-14.62,-1.98,-30.72
6.819908,0.0391,-0.1562,0.9814,-1.77,-1.40,-4.09,-14.67,-2.03,-30.81
6.849802,0.0479,-0.1582,0.9741,-0.18,-0.85,-1.71,-14.66,-2.05,-30.84
6.849802,0.0503,-0.1616,0.9810,-0.18,-0.43,-0.92,-14.66,-2.08,-30.86
6.909846,0.0537,-0.1709,0.9873,0.24,-0.12,-0.55,-14.64,-2.08,-30.86
6.909846,0.0581,-0.1738,0.9844,0.37,-0.31,-1.40,-14.62,-2.09,-30.86
6.940156,0.0620,-0.1704,0.9766,-0.18,0.24,-1.95,-14.61,-2.10,-30.89
6.940156,0.0542,-0.1709,0.9795,-1.40,0.49,-2.62,-14.61,-2.10,-30.92
6.969815,0.0518,-0.1680,0.9814,-0.67,0.43,-2.75,-14.62,-2.11,-30.97
6.969815,0.0454,-0.1646,0.9873,-2.93,0.12,-3.85,-14.66,-2.12,-31.03
7.030141,0.0439,-0.1597,0.9800,-2.99,-0.24,-2.56,-14.71,-2.14,-31.09
7.030141,0.0391,-0.1665,0.9888,-4.27,-1.22,-2.87,-14.77,-2.16,-31.12
7.059706,0.0464,-0.1655,0.9824,-3.36,-1.77,-1.65,-14.84,-2.20,-31.15
7.059706,0.0571,-0.1689,0.9785,-2.75,-1.59,-0.61,-14.90,-2.25,-31.16
7.089683,0.0645,-0.1768,0.9761,2.20,0.06,2.20,-14.88,-2.25,-31.12
7.089683,0.0645,-0.1758,0.9756,-0.24,0.24,0.06,-14.85,-2.24,-31.09
7.149571,0.0562,-0.1733,0.9819,-2.50,0.06,-1.53,-14.87,-2.24,-31.10
7.149571,0.0483,-0.1753,0.9893,-4.46,-0.73,-3.05,-14.92,-2.26,-31.14
7.182999,0.0469,-0.1724,0.9863,-1.89,-0.73,-1.40,-14.99,-2.29,-31.17
7.182999,0.0474,-0.1719,0.9849,-3.85,-1.65,-2.32,-15.03,-2.32,-31.18
7.209580,0.0596,-0.1738,0.9741,-5.68,-1.83,-2.81,-15.12,-2.37,-31.22
7.209580,0.0596,-0.1821,0.9785,-5.55,-1.22,-2.44,-15.23,-2.41,-31.26
7.299988,0.0591,-0.1816,0.9785,-2.93,-0.43,-1.22,-15.28,-2.43,-31.27
7.299988,0.0552,-0.1792,0.9824,-1.59,-0.18,-0.61,-15.33,-2.44,-31.28
7.302036,0.0557,-0.1860,0.9863,-4.52,-1.10,-2.62,-15.39,-2.47,-31.31
7.302036,0.0596,-0.1899,0.9795,-2.87,-0.67,-1.46,-15.43,-2.49,-31.33
7.329904,0.0591,-0.1860,0.9775,-1.83,-0.61,-1.34,-15.48,-2.52,-31.34
7.329904,0.0615,-0.1792,0.9736,0.06,0.00,-0.43,-15.49,-2.53,-31.35
7.390026,0.0542,-0.1846,0.9824,0.55,0.37,-0.24,-15.45,-2.52,-31.34
7.390026,0.0522,-0.1812,0.9805,1.22,0.12,-0.06,-15.43,-2.52,-31.34
7.419685,0.0562,-0.1812,0.9805,-0.18,-0.24,-0.43,-15.41,-2.52,-31.33
7.419685,0.0596,-0.1895,0.9819,-0.37,-0.12,-0.61,-15.40,-2.53,-31.33
7.449820,0.0591,-0.1846,0.9824,1.16,-0.18,-0.18,-15.38,-2.53,-31.33
7.449820,0.0615,-0.1807,0.9785,-0.43,-0.67,-1.28,-15.36,-2.54,-31.33
7.509561,0.0620,-0.1826,0.9717,-0.67,-0.24,-0.98,-15.36,-2.56,-31.34
7.509561,0.0586,-0.1802,0.9771,0.37,0.18,-0.24,-15.35,-2.56,-31.34
7.540013,0.0557,-0.1797,0.9800,-0.79,0.00,-0.43,-15.35,-2.57,-31.35
7.540013,0.0493,-0.1826,0.9844,0.06,0.00,0.24,-15.35,-2.56,-31.33
7.570254,0.0576,-0.1826,0.9805,-0.67,-0.92,-0.18,-15.36,-2.57,-31.32
7.570254,0.0664,-0.1885,0.9775,-0.79,-0.43,-0.79,-15.38,-2.59,-31.32
7.630071,0.0703,-0.1865,0.9702,0.49,0.18,0.00,-15.38,-2.59,-31.31
7.630071,0.0605,-0.1885,0.9810,-2.14,0.37,-1.83,-15.40,-2.59,-31.32
7.659750,0.0591,-0.1885,0.9795,-2.01,0.06,-2.01,-15.44,-2.59,-31.35
7.659750,0.0557,-0.1855,0.9854,-2.75,0.00,-2.56,-15.49,-2.60,-31.39
7.689556,0.0601,-0.1812,0.9727,-1.83,-0.24,-1.89,-15.53,-2.62,-31.42
7.689556,0.0566,-0.1865,0.9814,-0.49,-0.18,-0.79,-15.54,-2.63,-31.43
7.749851,0.0581,-0.1904,0.9819,-2.14,-0.37,-1.95,-15.57,-2.64,-31.45
7.749851,0.0596,-0.1904,0.9824,-2.62,-0.73,-2.56,-15.62,-2.66,-31.48
7.779792,0.0625,-0.1890,0.9800,-0.12,-0.12,-1.16,-15.64,-2.68,-31.50
7.779792,0.0674,-0.1860,0.9702,2.62,0.61,0.98,-15.63,-2.68,-31.50
7.810150,0.0586,-0.1924,0.9795,-0.06,0.37,-0.73,-15.60,-2.66,-31.49
7.810150,0.0601,-0.1831,0.9780,0.00,0.18,-1.40,-15.61,-2.67,-31.50
7.871166,0.0537,-0.1909,0.9863,-3.05,-0.37,-3.05,-15.64,-2.68,-31.54
7.871166,0.0596,-0.1797,0.9727,1.53,0.37,0.49,-15.66,-2.69,-31.56
7.899782,0.0571,-0.1885,0.9780,-1.04,-0.06,-0.92,-15.65,-2.68,-31.55
7.899782,0.0615,-0.1836,0.9731,2.44,0.37,1.10,-15.64,-2.68,-31.54
7.929812,0.0635,-0.1914,0.9824,1.71,0.61,0.55,-15.61,-2.66,-31.52
7.929812,0.0562,-0.1895,0.9854,5.62,1.28,2.87,-15.51,-2.63,-31.46
7.990023,0.0601,-0.1841,0.9785,1.83,0.24,0.67,-15.44,-2.61,-31.43
7.990023,0.0557,-0.1855,0.9829,-0.79,-0.43,-0.92,-15.44,-2.61,-31.43
8.019885,0.0566,-0.1855,0.9834,-0.92,-0.79,-0.98,-15.43,-2.63,-31.42
8.019885,0.0620,-0.1855,0.9819,1.46,-0.61,-0.12,-15.43,-2.65,-31.42
8.049866,0.0659,-0.1865,0.9780,2.20,0.00,0.24,-15.38,-2.65,-31.40
8.049866,0.0596,-0.1846,0.9790,0.85,-0.18,-0.92,-15.34,-2.65,-31.40
8.109824,0.0596,-0.1797,0.9810,0.18,-0.49,-1.16,-15.35,-2.67,-31.42
8.109824,0.0537,-0.1826,0.9854,1.65,-0.12,0.24,-15.31,-2.68,-31.40
8.140092,0.0576,-0.1763,0.9761,1.89,-0.37,0.12,-15.27,-2.68,-31.39
8.140092,0.0586,-0.1807,0.9756,-0.55,-0.24,-0.85,-15.25,-2.69,-31.38
8.170099,0.0601,-0.1777,0.9805,-1.34,-0.55,-1.22,-15.28,-2.70,-31.39
8.170099,0.0571,-0.1792,0.9839,-1.40,-1.22,-1.04,-15.31,-2.72,-31.41
8.229902,0.0581,-0.1797,0.9819,-0.67,-1.16,-0.31,-15.31,-2.75,-31.40
8.229902,0.0669,-0.1816,0.9722,0.61,-0.06,0.49,-15.31,-2.76,-31.39
8.259862,0.0645,-0.1865,0.9805,-0.12,0.06,-0.43,-15.31,-2.76,-31.38
8.259862,0.0649,-0.1895,0.9844,-1.53,-0.06,-1.34,-15.34,-2.77,-31.39
8.319863,0.0601,-0.1836,0.9849,-1.22,-0.43,-1.10,-15.35,-2.77,-31.40
8.319863,0.0615,-0.1821,0.9790,-1.34,-0.55,-1.28,-15.38,-2.79,-31.42
8.349826,0.0601,-0.1787,0.9775,-2.50,-0.55,-1.95,-15.41,-2.81,-31.43
8.349826,0.0630,-0.1836,0.9775,-1.59,-0.12,-0.92,-15.45,-2.82,-31.45
8.380064,0.0591,-0.1836,0.9819,-0.61,-0.12,-0.43,-15.46,-2.83,-31.45
8.380064,0.0615,-0.1807,0.9795,-0.06,-0.37,0.00,-15.46,-2.83,-31.44
8.440234,0.0601,-0.1807,0.9800,-2.87,-1.04,-1.40,-15.49,-2.85,-31.44
8.440234,0.0645,-0.1875,0.9766,-2.75,-1.10,-0.92,-15.54,-2.88,-31.45
8.470001,0.0679,-0.1929,0.9785,-1.65,-0.37,-0.49,-15.58,-2.90,-31.45
8.470001,0.0679,-0.1880,0.9775,0.00,0.24,0.06,-15.59,-2.90,-31.44
8.499912,0.0630,-0.1855,0.9790,-0.24,0.12,-0.49,-15.58,-2.89,-31.43
8.499912,0.0586,-0.1870,0.9819,-2.26,-0.61,-1.65,-15.61,-2.91,-31.44
# luecke 8.549975-91.442514
