t,ax,ay,az,gx,gy,gz,wx,wy,wz
0.071447,-0.0200,-0.9966,0.0732,0.00,0.00,-0.06,-87.24,1.94,-1.49
0.071447,-0.0200,-0.9956,0.0728,0.00,0.00,-0.12,-87.24,1.94,-1.49
0.071480,-0.0190,-0.9956,0.0732,0.00,0.00,0.00,-87.24,1.94,-1.49
0.071480,-0.0205,-0.9956,0.0737,0.00,0.00,-0.06,-87.24,1.94,-1.49
0.071492,-0.0195,-0.9951,0.0732,-0.06,0.00,-0.06,-87.24,1.94,-1.49
0.071492,-0.0200,-0.9956,0.0728,0.00,0.00,-0.06,-87.24,1.94,-1.49
0.124123,-0.0200,-0.9951,0.0752,0.00,0.00,-0.12,-87.24,1.94,-1.49
0.124123,-0.0200,-0.9961,0.0728,0.00,0.00,-0.06,-87.24,1.94,-1.49
0.153500,-0.0195,-0.9971,0.0718,-0.06,0.00,-0.12,-87.24,1.94,-1.49
0.153500,-0.0205,-0.9951,0.0732,0.00,0.00,-0.06,-87.24,1.94,-1.49
0.184520,-0.0205,-0.9951,0.0742,0.00,0.00,-0.12,-87.24,1.94,-1.49
0.184520,-0.0205,-0.9956,0.0732,-0.06,0.00,-0.12,-87.24,1.94,-1.49
0.244463,-0.0200,-0.9961,0.0728,0.00,0.00,-0.06,-87.24,1.94,-1.49
0.244463,-0.0195,-0.9966,0.0723,0.00,0.00,-0.06,-87.24,1.94,-1.49
0.275880,-0.0205,-0.9956,0.0757,0.00,0.00,-0.12,-87.24,1.94,-1.49
0.275880,-0.0210,-0.9956,0.0742,-0.06,0.00,-0.06,-87.24,1.94,-1.49
0.334435,-0.0205,-0.9951,0.0728,-0.06,-0.06,-0.06,-87.24,1.94,-1.49
0.334435,-0.0200,-0.9966,0.0737,0.00,0.00,-0.12,-87.24,1.94,-1.49
0.363601,-0.0200,-0.9961,0.0723,0.00,0.00,-0.06,-87.24,1.94,-1.49
0.363601,-0.0195,-0.9961,0.0737,0.00,0.00,-0.06,-87.24,1.94,-1.49
0.394481,-0.0195,-0.9951,0.0737,-0.06,0.00,-0.06,-87.24,1.94,-1.49
0.394481,-0.0195,-0.9961,0.0723,-0.06,0.00,-0.12,-87.24,1.94,-1.49
0.454676,-0.0205,-0.9951,0.0728,0.00,0.00,-0.06,-87.24,1.94,-1.49
0.454676,-0.0200,-0.9961,0.0747,-0.06,0.00,-0.12,-87.24,1.94,-1.49
0.484032,-0.0200,-0.9961,0.0737,-0.12,0.00,-0.06,-87.24,1.94,-1.49
0.484032,-0.0200,-0.9956,0.0737,-0.06,0.00,-0.12,-87.24,1.94,-1.49
0.514435,-0.0195,-0.9956,0.0732,0.00,0.00,-0.06,-87.24,1.94,-1.49
0.514435,-0.0205,-0.9961,0.0737,0.00,0.00,-0.06,-87.24,1.94,-1.49
0.575950,-0.0200,-0.9961,0.0732,0.00,0.00,-0.06,-87.24,1.94,-1.49
0.575950,-0.0200,-0.9956,0.0742,-0.06,0.00,-0.12,-87.24,1.94,-1.49
0.603630,-0.0195,-0.9961,0.0728,0.00,0.00,-0.12,-87.24,1.94,-1.49
0.603630,-0.0210,-0.9956,0.0742,0.00,0.00,-0.06,-87.24,1.94,-1.49
0.634430,-0.0205,-0.9961,0.0732,-0.06,0.00,-0.06,-87.24,1.94,-1.49
0.634430,-0.0205,-0.9961,0.0728,-0.06,0.00,-0.06,-87.24,1.94,-1.49
0.694552,-0.0195,-0.9971,0.0737,0.00,0.00,-0.12,-87.24,1.94,-1.49
0.694552,-0.0205,-0.9956,0.0732,-0.06,0.00,-0.06,-87.24,1.94,-1.49
0.725075,-0.0200,-0.9961,0.0742,0.00,0.00,-0.12,-87.24,1.94,-1.49
0.725075,-0.0210,-0.9951,0.0742,-0.06,0.00,-0.06,-87.24,1.94,-1.49
0.754397,-0.0195,-0.9961,0.0732,0.00,0.00,-0.06,-87.23,1.94,-1.49
0.754397,-0.0195,-0.9956,0.0723,-0.06,0.00,-0.06,-87.23,1.94,-1.49
0.814526,-0.0200,-0.9956,0.0732,0.00,0.00,-0.06,-87.23,1.94,-1.49
0.814526,-0.0200,-0.9961,0.0732,0.00,0.00,-0.06,-87.23,1.94,-1.49
0.843693,-0.0200,-0.9956,0.0732,0.00,0.00,-0.06,-87.23,1.94,-1.49
0.843693,-0.0200,-0.9956,0.0732,0.00,0.00,-0.06,-87.23,1.94,-1.49
0.874216,-0.0195,-0.9956,0.0732,0.00,0.00,-0.06,-87.23,1.94,-1.49
0.874216,-0.0195,-0.9956,0.0732,0.00,0.00,-0.06,-87.23,1.94,-1.49
0.934490,-0.0205,-0.9961,0.0732,0.00,0.00,-0.12,-87.23,1.94,-1.49
0.934490,-0.0195,-0.9961,0.0742,0.00,0.00,-0.06,-87.23,1.94,-1.49
0.963425,-0.0195,-0.9961,0.0747,0.00,0.00,-0.06,-87.23,1.94,-1.49
0.963425,-0.0190,-0.9961,0.0737,0.00,0.00,0.00,-87.23,1.94,-1.49
0.995014,-0.0195,-0.9961,0.0728,0.00,0.00,-0.06,-87.23,1.94,-1.49
0.995014,-0.0200,-0.9951,0.0728,-0.06,0.00,-0.06,-87.23,1.94,-1.49
1.053724,-0.0210,-0.9956,0.0737,0.00,0.00,-0.12,-87.23,1.94,-1.49
1.053724,-0.0200,-0.9956,0.0732,0.00,0.00,-0.06,-87.23,1.94,-1.49
1.084095,-0.0200,-0.9961,0.0723,0.00,0.06,-0.12,-87.23,1.94,-1.49
1.084095,-0.0200,-0.9961,0.0732,0.00,0.00,-0.06,-87.23,1.94,-1.49
1.113703,-0.0200,-0.9961,0.0723,0.00,0.00,0.00,-87.23,1.94,-1.49
1.113703,-0.0200,-0.9946,0.0742,0.00,0.00,-0.06,-87.23,1.94,-1.49
1.175521,-0.0200,-0.9961,0.0742,0.00,0.00,-0.06,-87.23,1.94,-1.49
1.175521,-0.0205,-0.9961,0.0732,-0.06,0.00,-0.12,-87.23,1.94,-1.49
1.203707,-0.0205,-0.9961,0.0732,0.00,0.00,-0.06,-87.23,1.94,-1.49
1.203707,-0.0195,-0.9966,0.0737,0.00,0.00,-0.06,-87.23,1.94,-1.49
1.233675,-0.0200,-0.9951,0.0742,-0.06,0.00,-0.12,-87.23,1.94,-1.49
1.233675,-0.0200,-0.9961,0.0728,0.00,0.00,-0.06,-87.23,1.94,-1.49
1.294051,-0.0190,-0.9951,0.0723,0.00,-0.06,-0.12,-87.23,1.94,-1.49
1.294051,-0.0200,-0.9946,0.0737,0.00,0.00,-0.12,-87.23,1.94,-1.49
1.323716,-0.0200,-0.9961,0.0742,0.00,0.00,0.00,-87.23,1.94,-1.49
1.323716,-0.0205,-0.9951,0.0737,0.00,0.00,-0.06,-87.23,1.94,-1.49
1.353664,-0.0200,-0.9966,0.0742,0.00,0.00,-0.12,-87.23,1.94,-1.49
1.353664,-0.0205,-0.9956,0.0732,0.00,0.00,-0.06,-87.23,1.94,-1.49
1.413745,-0.0190,-0.9966,0.0728,0.00,0.00,-0.12,-87.23,1.94,-1.49
1.413745,-0.0210,-0.9951,0.0747,0.00,0.00,-0.12,-87.23,1.94,-1.49
1.443708,-0.0195,-0.9956,0.0737,0.00,0.00,-0.12,-87.23,1.94,-1.49
1.443708,-0.0205,-0.9966,0.0728,0.00,0.00,0.00,-87.23,1.94,-1.49
1.473617,-0.0200,-0.9961,0.0737,-0.06,0.00,-0.06,-87.23,1.94,-1.49
1.473617,-0.0190,-0.9956,0.0742,-0.06,0.00,-0.12,-87.23,1.94,-1.49
1.533469,-0.0205,-0.9956,0.0728,-0.06,0.00,-0.12,-87.23,1.94,-1.49
1.533469,-0.0190,-0.9976,0.0703,-0.06,0.00,0.00,-87.23,1.94,-1.49
1.563683,-0.0210,-0.9966,0.0732,0.00,0.00,-0.06,-87.23,1.94,-1.49
1.563683,-0.0195,-0.9951,0.0757,0.00,0.00,-0.06,-87.23,1.94,-1.49
1.593669,-0.0215,-0.9951,0.0732,-0.12,0.00,-0.06,-87.23,1.94,-1.49
1.593669,-0.0181,-0.9961,0.0723,-0.06,0.00,-0.06,-87.23,1.94,-1.49
1.653528,-0.0205,-0.9956,0.0728,0.00,0.00,-0.06,-87.23,1.94,-1.49
1.653528,-0.0205,-0.9951,0.0737,0.00,0.00,-0.12,-87.23,1.94,-1.49
1.683881,-0.0200,-0.9946,0.0747,-0.06,0.00,-0.06,-87.23,1.94,-1.49
1.683881,-0.0200,-0.9956,0.0723,-0.06,0.00,-0.12,-87.23,1.94,-1.49
1.757238,-0.0200,-0.9961,0.0718,0.00,0.00,-0.06,-87.23,1.94,-1.49
1.757238,-0.0205,-0.9961,0.0728,0.06,0.00,-0.12,-87.23,1.94,-1.49
1.776247,-0.0200,-0.9946,0.0771,-0.06,0.00,0.00,-87.23,1.94,-1.49
1.776247,-0.0200,-0.9956,0.0747,-0.12,0.00,-0.12,-87.23,1.94,-1.49
1.803380,-0.0195,-0.9971,0.0718,-0.06,0.00,-0.12,-87.23,1.94,-1.49
1.803380,-0.0200,-0.9961,0.0728,0.00,0.00,-0.06,-87.23,1.94,-1.49
1.863676,-0.0205,-0.9956,0.0737,0.00,0.00,-0.12,-87.23,1.94,-1.49
1.863676,-0.0205,-0.9946,0.0747,-0.06,0.00,-0.12,-87.23,1.94,-1.49
1.894061,-0.0205,-0.9961,0.0732,-0.06,0.00,-0.12,-87.23,1.94,-1.49
1.894061,-0.0195,-0.9961,0.0718,-0.06,0.00,0.00,-87.23,1.94,-1.49
1.923540,-0.0205,-0.9961,0.0728,0.00,0.00,-0.12,-87.23,1.94,-1.49
1.923540,-0.0195,-0.9956,0.0747,-0.06,0.06,-0.06,-87.23,1.94,-1.49
1.983880,-0.0205,-0.9961,0.0737,-0.06,0.00,-0.12,-87.23,1.94,-1.49
1.983880,-0.0205,-0.9961,0.0718,0.00,0.00,-0.06,-87.23,1.94,-1.49
2.026065,-0.0200,-0.9961,0.0747,0.00,0.00,0.00,-87.23,1.94,-1.49
2.026065,-0.0195,-0.9956,0.0747,0.00,0.00,0.00,-87.23,1.94,-1.49
2.043676,-0.0195,-0.9961,0.0747,-0.06,0.00,-0.06,-87.23,1.94,-1.49
2.043676,-0.0190,-0.9971,0.0713,0.00,0.00,0.00,-87.23,1.94,-1.49
2.103438,-0.0195,-0.9956,0.0723,0.06,0.00,-0.12,-87.23,1.94,-1.49
2.103438,-0.0190,-0.9956,0.0752,0.00,0.00,-0.06,-87.23,1.94,-1.49
2.133510,-0.0205,-0.9961,0.0747,-0.12,0.00,-0.06,-87.23,1.94,-1.49
2.133510,-0.0190,-0.9961,0.0723,0.00,0.00,-0.06,-87.23,1.94,-1.49
2.163651,-0.0205,-0.9961,0.0723,0.00,0.00,-0.06,-87.23,1.94,-1.49
2.163651,-0.0200,-0.9951,0.0737,0.00,0.00,-0.12,-87.23,1.94,-1.49
2.223404,-0.0205,-0.9956,0.0732,0.00,0.00,-0.06,-87.23,1.94,-1.49
2.223404,-0.0186,-0.9956,0.0718,0.00,0.00,-0.06,-87.23,1.94,-1.49
2.253601,-0.0200,-0.9966,0.0723,0.00,0.00,-0.12,-87.23,1.94,-1.49
2.253601,-0.0190,-0.9966,0.0742,0.00,0.00,-0.06,-87.23,1.94,-1.49
2.283948,-0.0205,-0.9961,0.0732,-0.06,0.00,-0.12,-87.23,1.94,-1.49
2.283948,-0.0200,-0.9956,0.0732,-0.06,0.00,-0.12,-87.23,1.94,-1.49
2.343802,-0.0200,-0.9961,0.0737,0.00,0.00,-0.12,-87.23,1.94,-1.49
2.343802,-0.0195,-0.9956,0.0718,0.00,0.00,-0.12,-87.23,1.94,-1.49
2.376194,-0.0195,-0.9956,0.0728,0.00,0.00,-0.12,-87.23,1.94,-1.49
2.376194,-0.0210,-0.9956,0.0737,0.00,0.00,-0.06,-87.23,1.94,-1.49
2.403700,-0.0200,-0.9951,0.0723,0.00,0.00,-0.06,-87.23,1.94,-1.49
2.403700,-0.0210,-0.9961,0.0728,0.00,0.00,-0.12,-87.23,1.94,-1.49
2.463725,-0.0190,-0.9956,0.0742,0.00,0.00,-0.12,-87.23,1.94,-1.49
2.463725,-0.0205,-0.9951,0.0728,-0.12,0.00,-0.12,-87.23,1.94,-1.49
2.496566,-0.0195,-0.9961,0.0713,0.00,0.00,-0.06,-87.23,1.94,-1.49
2.496566,-0.0205,-0.9961,0.0728,0.00,0.00,-0.06,-87.23,1.94,-1.49
2.527789,-0.0200,-0.9956,0.0747,0.00,0.00,-0.12,-87.23,1.94,-1.49
2.527789,-0.0205,-0.9956,0.0737,-0.12,0.00,-0.18,-87.23,1.94,-1.49
2.583969,-0.0190,-0.9961,0.0708,-0.12,0.00,-0.12,-87.23,1.94,-1.49
2.583969,-0.0200,-0.9966,0.0708,0.00,0.00,-0.06,-87.23,1.94,-1.49
2.613965,-0.0205,-0.9956,0.0752,0.00,0.00,0.00,-87.23,1.94,-1.49
2.613965,-0.0205,-0.9956,0.0752,-0.06,0.00,-0.06,-87.23,1.94,-1.49
2.645186,-0.0195,-0.9961,0.0713,-0.06,0.00,-0.12,-87.23,1.94,-1.49
2.645186,-0.0205,-0.9966,0.0718,0.00,0.00,-0.06,-87.23,1.94,-1.49
2.703631,-0.0215,-0.9951,0.0737,0.00,0.00,-0.12,-87.23,1.94,-1.49
2.703631,-0.0195,-0.9951,0.0732,0.00,0.00,-0.06,-87.23,1.94,-1.49
2.733569,-0.0195,-0.9956,0.0723,0.00,0.00,-0.06,-87.23,1.94,-1.49
2.733569,-0.0200,-0.9961,0.0718,0.00,0.00,-0.06,-87.23,1.94,-1.49
2.763708,-0.0210,-0.9951,0.0737,0.00,0.06,-0.18,-87.23,1.94,-1.49
2.763708,-0.0200,-0.9951,0.0742,0.00,0.00,-0.06,-87.23,1.94,-1.49
2.824118,-0.0195,-0.9956,0.0728,-0.06,0.00,-0.06,-87.23,1.94,-1.49
2.824118,-0.0200,-0.9961,0.0713,0.00,0.00,-0.12,-87.23,1.94,-1.49
2.853698,-0.0210,-0.9956,0.0728,0.00,0.00,-0.06,-87.23,1.94,-1.49
2.853698,-0.0200,-0.9951,0.0737,0.00,0.00,-0.06,-87.23,1.94,-1.49
2.883885,-0.0205,-0.9956,0.0728,-0.12,0.00,-0.06,-87.23,1.94,-1.49
2.883885,-0.0200,-0.9961,0.0718,-0.06,0.00,0.00,-87.24,1.94,-1.49
2.943519,-0.0200,-0.9966,0.0718,0.00,0.00,-0.12,-87.24,1.94,-1.49
2.943519,-0.0200,-0.9956,0.0737,0.00,0.00,-0.06,-87.24,1.94,-1.49
2.976028,-0.0200,-0.9961,0.0728,-0.06,0.00,-0.06,-87.24,1.94,-1.49
2.976028,-0.0195,-0.9961,0.0728,0.00,0.06,-0.06,-87.24,1.94,-1.49
3.003603,-0.0190,-0.9961,0.0718,0.00,0.00,-0.06,-87.24,1.94,-1.49
3.003603,-0.0200,-0.9956,0.0728,0.00,0.00,-0.12,-87.24,1.94,-1.49
3.063694,-0.0195,-0.9956,0.0728,0.00,0.00,-0.06,-87.24,1.94,-1.49
3.063694,-0.0200,-0.9961,0.0723,0.00,0.00,-0.12,-87.24,1.94,-1.49
3.096220,-0.0190,-0.9956,0.0732,0.00,0.00,0.00,-87.24,1.94,-1.49
3.096220,-0.0205,-0.9961,0.0737,0.00,0.00,-0.12,-87.24,1.94,-1.49
3.153614,-0.0210,-0.9951,0.0732,0.00,0.00,-0.06,-87.24,1.94,-1.49
3.153614,-0.0205,-0.9951,0.0732,0.00,0.00,-0.12,-87.24,1.94,-1.49
3.183951,-0.0195,-0.9961,0.0713,0.00,0.00,-0.12,-87.24,1.94,-1.49
3.183951,-0.0215,-0.9966,0.0718,0.00,0.00,-0.12,-87.24,1.94,-1.49
3.214044,-0.0200,-0.9951,0.0728,0.00,0.00,-0.06,-87.24,1.94,-1.49
3.214044,-0.0195,-0.9956,0.0732,0.00,0.00,-0.12,-87.24,1.94,-1.49
3.273673,-0.0200,-0.9961,0.0723,0.00,0.00,-0.18,-87.24,1.94,-1.49
3.273673,-0.0215,-0.9966,0.0737,0.00,0.00,-0.06,-87.24,1.94,-1.49
3.303661,-0.0200,-0.9956,0.0742,-0.06,0.06,-0.06,-87.24,1.94,-1.49
3.303661,-0.0200,-0.9956,0.0718,-0.06,0.00,-0.06,-87.24,1.94,-1.49
3.333639,-0.0195,-0.9956,0.0723,0.00,0.06,-0.12,-87.24,1.94,-1.49
3.333639,-0.0200,-0.9961,0.0718,0.00,0.00,-0.12,-87.24,1.94,-1.49
3.393760,-0.0200,-0.9956,0.0728,0.00,0.00,-0.06,-87.24,1.94,-1.49
3.393760,-0.0200,-0.9951,0.0718,-0.06,0.00,-0.12,-87.24,1.94,-1.49
3.423648,-0.0205,-0.9971,0.0728,0.00,0.00,-0.12,-87.24,1.94,-1.49
3.423648,-0.0190,-0.9956,0.0718,0.00,0.00,0.00,-87.24,1.94,-1.49
3.453647,-0.0205,-0.9951,0.0723,0.00,0.00,-0.06,-87.24,1.94,-1.49
3.453647,-0.0195,-0.9956,0.0732,0.00,0.00,-0.12,-87.24,1.94,-1.49
3.513773,-0.0215,-0.9961,0.0728,0.00,0.00,-0.12,-87.24,1.94,-1.49
3.513773,-0.0195,-0.9961,0.0723,0.00,0.00,-0.06,-87.24,1.94,-1.49
3.543647,-0.0200,-0.9966,0.0728,0.00,0.00,-0.06,-87.24,1.94,-1.49
3.543647,-0.0195,-0.9956,0.0742,-0.06,0.00,-0.06,-87.24,1.94,-1.49
3.573747,-0.0200,-0.9961,0.0737,0.00,0.00,-0.06,-87.24,1.94,-1.49
3.573747,-0.0195,-0.9976,0.0718,0.00,0.00,-0.06,-87.24,1.94,-1.49
3.633771,-0.0200,-0.9961,0.0732,0.00,0.00,0.00,-87.24,1.94,-1.49
3.633771,-0.0186,-0.9951,0.0757,0.00,0.00,-0.06,-87.24,1.94,-1.49
3.663832,-0.0205,-0.9956,0.0752,-0.06,0.00,-0.18,-87.24,1.94,-1.49
3.663832,-0.0200,-0.9961,0.0708,-0.06,0.00,-0.12,-87.24,1.94,-1.49
3.693781,-0.0205,-0.9966,0.0718,0.00,0.00,-0.06,-87.24,1.94,-1.49
3.693781,-0.0200,-0.9951,0.0752,-0.06,0.00,-0.06,-87.24,1.94,-1.49
3.753651,-0.0210,-0.9961,0.0742,-0.12,0.00,-0.06,-87.24,1.94,-1.49
3.753651,-0.0195,-0.9966,0.0718,-0.06,0.00,-0.12,-87.24,1.94,-1.49
3.783880,-0.0195,-0.9961,0.0728,0.00,0.00,-0.12,-87.24,1.94,-1.49
3.783880,-0.0200,-0.9961,0.0747,0.00,0.00,-0.06,-87.24,1.94,-1.49
3.813711,-0.0205,-0.9961,0.0752,-0.06,0.00,-0.12,-87.24,1.94,-1.49
3.813711,-0.0195,-0.9961,0.0718,-0.06,0.00,-0.12,-87.24,1.94,-1.49
3.874041,-0.0200,-0.9961,0.0723,0.00,0.00,-0.06,-87.24,1.94,-1.49
3.874041,-0.0195,-0.9961,0.0742,0.00,0.00,-0.06,-87.24,1.94,-1.49
3.904296,-0.0205,-0.9956,0.0747,-0.06,0.00,-0.06,-87.24,1.94,-1.49
3.904296,-0.0200,-0.9956,0.0728,-0.06,0.00,0.00,-87.24,1.94,-1.49
3.963908,-0.0200,-0.9961,0.0713,0.00,0.00,-0.12,-87.24,1.94,-1.49
3.963908,-0.0195,-0.9956,0.0742,0.00,0.00,-0.12,-87.24,1.94,-1.49
3.993880,-0.0205,-0.9956,0.0752,0.00,0.00,0.00,-87.24,1.94,-1.49
3.993880,-0.0200,-0.9956,0.0728,-0.06,0.00,-0.06,-87.24,1.94,-1.49
4.024782,-0.0210,-0.9961,0.0723,0.00,0.00,-0.12,-87.24,1.94,-1.49
4.024782,-0.0195,-0.9961,0.0723,0.00,0.00,-0.06,-87.24,1.94,-1.49
4.053635,-0.0200,-0.9961,0.0742,0.00,0.00,-0.06,-87.24,1.94,-1.49
4.053635,-0.0200,-0.9951,0.0742,0.00,0.00,-0.12,-87.24,1.94,-1.49
4.144122,-0.0210,-0.9961,0.0718,-0.06,0.00,-0.06,-87.24,1.94,-1.49
4.144122,-0.0195,-0.9961,0.0718,0.00,0.00,-0.06,-87.24,1.94,-1.49
4.146503,-0.0205,-0.9961,0.0737,0.00,0.00,-0.06,-87.24,1.94,-1.49
4.146503,-0.0205,-0.9956,0.0732,0.00,0.00,-0.06,-87.24,1.94,-1.49
4.173711,-0.0195,-0.9961,0.0718,-0.06,0.00,-0.12,-87.24,1.94,-1.49
4.173711,-0.0200,-0.9961,0.0723,0.00,0.00,-0.06,-87.24,1.94,-1.49
4.233437,-0.0190,-0.9961,0.0732,0.00,0.00,-0.06,-87.24,1.94,-1.49
4.233437,-0.0200,-0.9956,0.0752,0.00,0.00,-0.12,-87.24,1.94,-1.49
4.263774,-0.0210,-0.9966,0.0737,0.00,0.00,-0.06,-87.24,1.94,-1.49
4.263774,-0.0195,-0.9966,0.0728,0.00,0.00,-0.12,-87.24,1.94,-1.49
4.294091,-0.0195,-0.9961,0.0728,0.00,0.00,-0.06,-87.24,1.94,-1.49
4.294091,-0.0205,-0.9961,0.0732,0.00,0.00,-0.12,-87.24,1.94,-1.49
4.353697,-0.0205,-0.9961,0.0742,0.00,0.00,-0.06,-87.24,1.94,-1.49
4.353697,-0.0200,-0.9961,0.0728,0.00,0.00,-0.06,-87.24,1.94,-1.49
4.383966,-0.0195,-0.9961,0.0728,0.00,0.00,-0.06,-87.24,1.94,-1.49
4.383966,-0.0200,-0.9961,0.0732,0.00,0.00,-0.06,-87.24,1.94,-1.49
4.413843,-0.0210,-0.9961,0.0732,0.00,0.00,-0.12,-87.24,1.94,-1.49
4.413843,-0.0205,-0.9961,0.0732,-0.06,0.00,0.00,-87.24,1.94,-1.49
4.473767,-0.0195,-0.9956,0.0728,0.00,0.00,-0.12,-87.24,1.94,-1.49
4.473767,-0.0200,-0.9961,0.0732,0.00,0.00,-0.06,-87.24,1.94,-1.49
4.503694,-0.0205,-0.9956,0.0752,0.00,0.00,-0.12,-87.24,1.94,-1.49
4.503694,-0.0200,-0.9961,0.0737,0.00,0.00,-0.06,-87.24,1.94,-1.49
4.563772,-0.0195,-0.9956,0.0723,0.00,0.00,-0.06,-87.24,1.94,-1.49
4.563772,-0.0195,-0.9961,0.0728,0.00,0.00,-0.06,-87.24,1.94,-1.49
4.594382,-0.0186,-0.9961,0.0737,0.00,0.00,-0.12,-87.24,1.94,-1.49
4.594382,-0.0195,-0.9951,0.0732,0.00,0.00,-0.12,-87.24,1.94,-1.49
4.623660,-0.0205,-0.9956,0.0737,-0.06,0.06,-0.12,-87.24,1.94,-1.49
4.623660,-0.0205,-0.9961,0.0728,0.00,0.00,-0.06,-87.24,1.94,-1.49
4.683968,-0.0195,-0.9956,0.0723,0.00,0.00,-0.06,-87.24,1.94,-1.49
4.683968,-0.0195,-0.9966,0.0732,-0.06,0.00,-0.12,-87.24,1.94,-1.49
4.713757,-0.0210,-0.9946,0.0737,0.00,0.00,0.00,-87.24,1.94,-1.49
4.713757,-0.0210,-0.9961,0.0728,0.00,0.00,-0.12,-87.24,1.94,-1.49
4.744518,-0.0195,-0.9961,0.0728,0.00,0.00,-0.12,-87.24,1.94,-1.49
4.744518,-0.0181,-0.9980,0.0674,0.12,-0.06,0.00,-87.24,1.94,-1.49
4.803735,-0.0200,-0.9976,0.0664,0.55,-0.06,0.00,-87.24,1.94,-1.49
4.803735,-0.0200,-0.9961,0.0723,0.73,-0.06,0.00,-87.24,1.94,-1.49
4.833708,-0.0762,-0.9854,0.0498,-0.55,-8.06,0.67,-87.24,1.94,-1.45
4.833708,-0.0205,-0.9961,0.0898,-1.16,-12.82,-0.49,-87.26,1.93,-1.18
4.863805,0.0454,-0.9951,0.1187,-0.67,-0.49,0.37,-87.27,1.92,-1.08
4.863805,-0.0688,-0.9941,0.0615,-1.28,0.00,-0.55,-87.30,1.93,-1.08
4.923734,0.0239,-1.0054,0.0513,0.06,-0.12,-0.12,-87.31,1.91,-1.08
4.923734,-0.0361,-0.9824,0.1099,-1.46,0.00,-0.85,-87.31,1.91,-1.07
4.953588,-0.0166,-1.0078,0.0312,-0.92,-0.18,0.49,-87.35,1.91,-1.07
4.953588,-0.0244,-1.0034,0.0439,1.46,-0.18,-0.12,-87.34,1.92,-1.06
4.983954,-0.0415,-0.9771,0.1396,0.37,0.00,-0.55,-87.31,1.91,-1.05
4.983954,0.0112,-0.9990,0.0708,-2.14,0.00,-0.24,-87.34,1.90,-1.06
5.044676,-0.0347,-1.0049,0.0400,0.06,0.49,-0.43,-87.36,1.90,-1.07
5.044676,-0.0137,-0.9912,0.0957,0.06,2.32,0.00,-87.35,1.90,-1.09
5.073689,-0.0249,-0.9956,0.0718,-0.24,3.97,-0.73,-87.35,1.90,-1.16
5.073689,-0.0166,-1.0015,0.0469,0.43,2.14,-0.37,-87.35,1.89,-1.22
5.103692,-0.0132,-0.9976,0.0718,0.55,0.06,0.43,-87.34,1.90,-1.24
5.103692,-0.0308,-0.9912,0.0850,0.24,0.92,-0.31,-87.33,1.90,-1.25
5.163667,-0.0249,-0.9951,0.0688,-0.31,0.37,-0.43,-87.33,1.90,-1.26
5.163667,-0.0098,-1.0010,0.0605,0.37,0.06,-0.37,-87.33,1.89,-1.27
5.194825,-0.0239,-0.9927,0.0815,0.18,0.79,0.00,-87.32,1.89,-1.28
5.194825,-0.0171,-0.9971,0.0713,-0.12,0.67,-0.06,-87.32,1.89,-1.29
5.223688,-0.0186,-0.9985,0.0649,0.37,0.18,-0.12,-87.32,1.89,-1.30
5.223688,-0.0112,-0.9941,0.0820,0.37,0.00,0.12,-87.31,1.89,-1.30
5.284001,-0.0244,-0.9937,0.0791,-0.18,0.00,0.24,-87.31,1.90,-1.30
5.284001,-0.0132,-0.9927,0.0903,-0.73,0.31,0.06,-87.31,1.90,-1.30
5.313768,-0.0347,-0.9946,0.0679,-0.43,1.83,-0.55,-87.31,1.90,-1.30
5.313768,-0.0117,-1.0005,0.0645,-0.55,1.77,-0.18,-87.31,1.90,-1.30
5.344738,-0.0205,-0.9980,0.0625,0.00,1.22,-0.31,-87.31,1.90,-1.30
5.344738,-0.0205,-0.9966,0.0645,0.00,0.18,0.00,-87.31,1.90,-1.30
5.403721,-0.0225,-0.9966,0.0693,0.24,0.00,-0.06,-87.31,1.90,-1.30
5.403721,-0.0117,-1.0000,0.0654,0.85,1.16,-0.12,-87.31,1.90,-1.30
5.433777,-0.0239,-0.9917,0.0820,0.79,1.16,-0.24,-87.31,1.90,-1.30
5.433777,-0.0161,-0.9990,0.0630,0.18,0.00,0.00,-87.31,1.90,-1.30
5.463823,-0.0225,-0.9985,0.0635,0.92,-0.06,0.00,-87.31,1.90,-1.30
5.463823,-0.0308,-0.9922,0.0796,0.85,-0.18,-0.31,-87.31,1.91,-1.30
5.523688,-0.0142,-0.9902,0.0869,0.24,0.37,-0.49,-87.31,1.91,-1.30
5.523688,-0.0239,-0.9897,0.0918,-0.73,1.16,-0.12,-87.31,1.91,-1.30
5.553692,-0.0127,-0.9976,0.0747,-1.22,0.73,-0.37,-87.31,1.91,-1.30
5.553692,-0.0117,-1.0068,0.0439,0.06,-0.06,0.00,-87.31,1.91,-1.30
5.584098,-0.0186,-0.9961,0.0728,0.92,-0.06,0.18,-87.31,1.91,-1.30
5.584098,-0.0225,-0.9888,0.0918,0.06,-0.06,-0.12,-87.31,1.91,-1.30
5.645108,-0.0171,-0.9946,0.0786,-0.49,0.00,-0.12,-87.31,1.91,-1.30
5.645108,-0.0176,-0.9956,0.0757,-0.55,0.06,0.06,-87.31,1.91,-1.30
5.673680,-0.0308,-0.9912,0.0840,-1.04,0.00,-0.24,-87.31,1.91,-1.30
5.673680,-0.0127,-0.9995,0.0640,-1.04,-0.06,-0.37,-87.31,1.91,-1.30
5.703685,-0.0161,-0.9966,0.0718,-0.43,0.00,0.06,-87.31,1.91,-1.30
5.703685,-0.0234,-0.9946,0.0728,-0.73,0.00,0.00,-87.30,1.91,-1.30
5.763830,-0.0171,-0.9995,0.0591,-0.31,0.00,-0.12,-87.30,1.91,-1.30
5.763830,-0.0205,-0.9971,0.0674,0.12,0.00,0.00,-87.30,1.91,-1.30
5.795125,-0.0215,-0.9980,0.0649,0.37,0.00,-0.31,-87.30,1.91,-1.30
5.795125,-0.0181,-0.9956,0.0742,0.43,0.00,-0.12,-87.30,1.91,-1.30
5.824827,-0.0225,-0.9937,0.0796,0.12,0.00,-0.18,-87.30,1.91,-1.30
5.824827,-0.0210,-0.9932,0.0796,-0.24,0.00,-0.24,-87.30,1.91,-1.30
5.884261,-0.0171,-0.9966,0.0698,0.00,0.00,-0.43,-87.30,1.91,-1.30
5.884261,-0.0127,-0.9956,0.0776,-0.31,-0.12,0.00,-87.30,1.91,-1.30
5.913739,-0.0229,-0.9937,0.0781,-0.55,-0.12,-0.12,-87.30,1.91,-1.30
5.913739,-0.0112,-0.9995,0.0654,-0.55,0.00,-0.06,-87.30,1.91,-1.30
5.973702,-0.0195,-0.9976,0.0659,-0.06,0.00,0.00,-87.30,1.91,-1.30
5.973702,-0.0107,-1.0010,0.0630,0.37,1.28,-0.06,-87.30,1.91,-1.30
6.005015,-0.0254,-0.9937,0.0781,1.40,4.64,-0.67,-87.29,1.90,-1.36
6.005015,-0.0483,-0.9775,0.1235,-0.49,2.75,-1.16,-87.28,1.90,-1.43
6.034872,0.0117,-1.0010,0.0732,-2.93,6.16,-1.28,-87.32,1.87,-1.52
6.034872,-0.0068,-1.0083,0.0293,-0.12,3.54,-0.55,-87.35,1.86,-1.62
6.093735,-0.0298,-1.0000,0.0513,1.40,5.80,-0.12,-87.34,1.87,-1.72
6.093735,-0.0107,-0.9932,0.0884,0.73,4.03,0.00,-87.31,1.87,-1.81
6.123732,-0.0273,-0.9922,0.0845,0.00,4.03,-0.73,-87.31,1.87,-1.89
6.123732,-0.0054,-0.9961,0.0752,-0.61,2.26,-0.31,-87.31,1.87,-1.96
6.153662,-0.0195,-0.9961,0.0762,-0.79,1.65,0.18,-87.33,1.87,-1.99
6.153662,-0.0254,-0.9976,0.0703,-0.18,4.76,-0.43,-87.34,1.88,-2.05
6.213785,-0.0195,-0.9927,0.0791,-0.67,3.66,-0.43,-87.35,1.88,-2.15
6.213785,-0.0190,-1.0034,0.0464,0.55,2.93,0.79,-87.35,1.89,-2.21
6.243716,-0.0410,-0.9966,0.0635,0.85,3.54,-0.06,-87.34,1.91,-2.27
6.243716,-0.0220,-0.9961,0.0635,0.31,1.34,-0.24,-87.32,1.90,-2.32
6.273753,-0.0278,-1.0127,0.0117,1.71,-0.37,0.12,-87.31,1.91,-2.33
6.273753,-0.0186,-1.0137,0.0137,4.27,-2.81,-0.49,-87.25,1.90,-2.31
6.333788,0.0474,-1.0503,-0.0454,8.18,-3.23,2.99,-87.12,1.92,-2.22
6.333788,0.0942,-1.0879,-0.0771,15.87,-2.62,8.42,-86.89,2.03,-2.17
6.363804,0.1519,-1.1143,-0.0923,25.70,-5.37,20.02,-86.46,2.30,-2.07
6.363804,0.1519,-1.3052,-0.0215,36.68,-3.11,36.44,-85.82,2.87,-1.91
6.393738,0.1084,-1.3594,0.1035,42.48,3.91,48.65,-85.01,3.74,-1.84
6.393738,0.0083,-1.3564,0.1860,40.95,4.21,59.14,-84.16,4.83,-1.80
6.454079,-0.1885,-1.3203,0.2510,30.52,2.26,60.24,-83.43,6.05,-1.70
6.454079,-0.4126,-1.2896,0.3491,13.92,-0.79,47.85,-82.97,7.14,-1.55
6.484004,-0.5361,-1.2705,0.4727,-11.47,1.59,20.57,-82.93,7.82,-1.44
6.484004,-0.4946,-1.3032,0.3223,-36.62,6.71,-11.78,-83.46,7.90,-1.53
6.513774,-0.2007,-1.4653,0.0444,-43.03,5.43,-26.61,-84.32,7.48,-1.71
6.513774,0.0864,-1.5967,-0.0444,-27.71,15.75,-10.93,-85.08,7.09,-1.95
6.573719,-0.0293,-1.4839,0.0659,-12.70,25.02,8.91,-85.50,7.15,-2.38
6.573719,-0.2549,-1.2485,0.1587,-19.23,24.78,5.37,-85.84,7.39,-2.88
6.603775,-0.3135,-1.1855,0.1191,-34.42,16.97,-11.29,-86.44,7.37,-3.30
6.603775,-0.2329,-1.2188,-0.0210,-39.12,9.52,-26.79,-87.24,6.99,-3.59
6.633836,-0.0879,-1.2104,-0.0264,-35.95,0.55,-31.74,-88.00,6.39,-3.73
6.633836,0.0835,-1.2681,0.0405,-28.50,3.05,-23.93,-88.66,5.82,-3.76
6.693807,0.1323,-1.2100,0.0454,-13.92,13.43,-6.23,-89.09,5.53,-3.97
6.693807,-0.0400,-1.0371,0.0894,-7.93,9.70,7.32,-89.31,5.58,-4.21
6.723729,-0.2246,-0.9546,0.1855,-9.03,4.58,4.94,-89.48,5.73,-4.35
6.723729,-0.2676,-0.8926,0.2139,-15.81,0.00,-6.29,-89.73,5.72,-4.39
6.753810,-0.2173,-0.8755,0.1675,-20.69,-8.48,-15.20,-90.10,5.49,-4.31
6.753810,-0.1440,-0.8506,0.1714,-22.28,-12.21,-19.47,-90.52,5.14,-4.09
6.813729,-0.1074,-0.8345,0.1748,-23.99,-8.42,-20.57,-90.97,4.72,-3.88
6.813729,-0.0200,-0.8545,0.0664,-21.91,-3.23,-17.03,-91.43,4.34,-3.78
6.843757,-0.0225,-0.8633,0.0396,-13.98,-4.82,-11.66,-91.79,4.06,-3.70
6.843757,-0.0547,-0.7983,0.1001,-11.60,-7.81,-9.89,-92.02,3.86,-3.57
6.874544,0.0356,-0.8335,0.1396,-11.90,-3.91,-6.84,-92.25,3.68,-3.44
6.874544,0.0659,-0.7871,0.1475,-10.07,-2.01,2.08,-92.46,3.64,-3.39
6.933780,-0.0264,-0.7090,0.1943,-15.38,-2.81,6.23,-92.70,3.74,-3.34
6.933780,-0.0317,-0.6694,0.1597,-24.90,-0.43,5.49,-93.11,3.86,-3.32
6.963564,-0.0249,-0.6255,0.0669,-32.23,-5.31,8.54,-93.69,4.00,-3.27
6.963564,-0.1104,-0.6128,0.1001,-38.51,-9.03,7.26,-94.39,4.19,-3.12
6.993705,-0.0610,-0.5952,0.0103,-44.62,-9.77,4.09,-95.21,4.30,-2.93
6.993705,-0.0176,-0.6255,-0.1538,-43.03,-6.77,5.74,-96.10,4.42,-2.77
7.053662,-0.0146,-0.6211,-0.3174,-31.19,-4.27,7.14,-96.84,4.55,-2.69
7.053662,-0.1113,-0.5801,-0.3003,-19.59,-8.54,4.70,-97.32,4.70,-2.57
7.083985,-0.0879,-0.6069,-0.2246,-14.10,-7.26,-2.32,-97.64,4.74,-2.40
7.083985,0.0513,-0.6089,-0.2100,-9.58,-3.72,2.01,-97.86,4.72,-2.30
7.114631,0.0000,-0.5913,-0.2168,-6.23,-3.97,11.17,-98.01,4.88,-2.24
7.114631,-0.0796,-0.5840,-0.1929,-1.89,-1.65,13.06,-98.09,5.14,-2.20
7.173741,-0.1333,-0.6182,-0.1787,4.52,2.56,9.28,-98.06,5.37,-2.24
7.173741,-0.0835,-0.6553,-0.1406,8.67,6.59,4.46,-97.93,5.49,-2.35
7.203770,-0.0161,-0.6533,-0.1118,11.35,9.09,8.12,-97.74,5.59,-2.53
7.203770,-0.0781,-0.6514,-0.1011,13.79,10.56,11.96,-97.51,5.78,-2.75
7.233761,-0.1523,-0.6470,-0.0796,15.69,11.41,7.39,-97.23,5.97,-2.99
7.233761,-0.1338,-0.6436,-0.0767,15.32,11.54,0.67,-96.94,6.02,-3.23
7.293751,-0.0815,-0.6753,-0.0986,16.36,11.60,-2.93,-96.65,5.97,-3.46
7.293751,-0.0859,-0.6597,-0.0752,18.37,10.38,-5.43,-96.31,5.87,-3.67
7.323739,-0.1001,-0.6562,-0.0435,20.02,9.64,-7.81,-95.94,5.72,-3.86
7.323739,-0.0688,-0.6919,-0.0601,22.28,13.61,-10.31,-95.54,5.52,-4.08
7.384058,-0.0840,-0.6665,-0.0820,22.22,9.34,-10.38,-95.10,5.30,-4.31
7.384058,-0.1455,-0.7036,0.0210,18.98,2.50,-16.91,-94.70,5.04,-4.39
7.413805,-0.0942,-0.7554,0.0332,15.87,4.64,-28.50,-94.36,4.57,-4.43
7.413805,0.0620,-0.9023,-0.0576,21.00,8.85,-30.03,-94.00,3.95,-4.54
7.444553,0.0938,-0.8936,-0.1123,31.74,8.00,-17.58,-93.48,3.47,-4.71
7.444553,0.0610,-0.8970,-0.0337,36.62,-0.61,-6.96,-92.77,3.25,-4.77
7.503846,0.0503,-0.9497,0.0420,33.33,-5.19,-5.13,-92.07,3.14,-4.70
7.503846,0.0889,-1.0039,0.0586,30.15,-7.75,-3.36,-91.43,3.05,-4.58
7.534545,0.1069,-1.0244,0.0933,26.79,-11.05,1.46,-90.86,3.03,-4.37
7.534545,0.0801,-1.0640,0.0732,24.60,-10.56,8.30,-90.34,3.13,-4.14
7.563850,0.0552,-1.1440,-0.0244,30.33,-6.59,11.90,-89.80,3.35,-3.97
7.563850,0.0220,-1.1328,-0.0435,40.89,-1.83,11.29,-89.07,3.58,-3.87
7.624543,-0.0732,-1.0454,0.0015,45.53,-2.32,8.36,-88.18,3.78,-3.83
7.624543,-0.2290,-0.9644,0.1572,38.88,-10.19,-0.24,-87.31,3.87,-3.70
7.653738,-0.2622,-0.9258,0.2563,21.48,-11.84,-14.71,-86.69,3.69,-3.48
7.653738,-0.1587,-1.0576,0.2134,6.35,-10.68,-24.05,-86.43,3.26,-3.29
7.684982,-0.0557,-1.1367,0.0884,4.39,-16.48,-20.51,-86.33,2.79,-3.08
7.684982,-0.1562,-1.1792,0.1748,2.32,-20.02,-19.53,-86.25,2.37,-2.72
7.747248,-0.0449,-1.3096,0.0713,4.64,-12.02,-21.67,-86.19,1.92,-2.44
7.747248,0.1021,-1.3452,0.0679,13.55,-6.77,-10.74,-85.99,1.57,-2.30
7.776512,0.0913,-1.3076,0.1313,14.77,-6.47,3.30,-85.69,1.50,-2.18
7.776512,-0.0205,-1.2539,0.2300,9.22,-9.89,11.54,-85.44,1.65,-1.99
7.804752,-0.0420,-1.2642,0.2085,2.56,-4.58,13.00,-85.33,1.88,-1.82
7.804752,0.0479,-1.2842,0.1333,4.82,-0.85,18.49,-85.26,2.19,-1.74
7.864540,-0.0151,-1.1104,0.2070,3.42,-4.03,28.87,-85.16,2.68,-1.63
7.864540,-0.2471,-1.0054,0.2480,-7.75,-10.74,23.86,-85.19,3.21,-1.42
7.893777,-0.2490,-1.0776,0.1831,-18.37,-8.48,3.48,-85.46,3.46,-1.18
7.893777,0.0122,-1.1147,0.0137,-16.91,-3.54,-3.97,-85.83,3.40,-1.08
7.924569,0.0503,-1.0786,-0.0376,-8.97,-5.74,4.39,-86.08,3.40,-1.00
7.924569,-0.0938,-1.0112,0.0283,-4.52,-10.44,5.68,-86.19,3.51,-0.81
7.984977,-0.1626,-1.0254,0.0117,-3.17,-6.77,-3.23,-86.26,3.53,-0.63
7.984977,-0.0811,-1.1104,-0.1104,9.34,-4.21,-10.68,-86.20,3.36,-0.54
8.013626,-0.0190,-1.0620,0.0381,19.35,-3.17,-10.01,-85.89,3.14,-0.49
8.013626,-0.1309,-0.9946,0.2539,10.44,-8.54,-11.84,-85.55,2.93,-0.40
8.046203,-0.1196,-1.0674,0.2749,-9.70,-7.57,-24.05,-85.56,2.55,-0.26
8.046203,0.0581,-1.1938,0.1162,-14.77,-8.73,-24.84,-85.83,2.03,-0.15
8.106129,0.1118,-1.1895,0.1177,-13.92,-6.23,-14.83,-86.12,1.61,-0.04
8.106129,0.1416,-2.1299,0.0996,-13.06,-3.30,-10.56,-86.36,1.38,0.04
8.164786,-0.0161,-1.2988,-0.0029,-11.47,-1.95,38.45,-86.52,1.78,-0.05
8.164786,-0.2119,-1.0083,0.0376,-5.74,-12.33,17.70,-86.69,2.28,0.26
8.167357,-0.2148,-0.9404,0.0747,-2.08,-5.37,5.98,-86.75,2.50,0.42
8.167357,-0.1753,-0.9312,0.1509,-0.18,3.23,-6.35,-86.76,2.48,0.44
8.224560,-0.1367,-0.9072,0.2788,-9.22,4.52,-13.49,-86.85,2.29,0.34
8.224560,0.2798,-1.0796,0.1016,-17.52,1.53,-11.35,-87.15,1.98,0.24
8.253610,0.0244,-1.0664,-0.1460,-7.02,0.12,3.17,-87.40,1.97,0.23
8.253610,-0.0488,-1.0322,-0.0659,1.83,0.24,0.73,-87.44,2.01,0.23
8.284624,-0.0469,-0.9937,0.0630,5.74,-0.24,0.92,-87.35,2.03,0.23
8.284624,-0.0669,-0.9722,0.1348,2.87,-0.43,-1.83,-87.26,2.02,0.24
8.344392,-0.0244,-0.9761,0.1460,-1.04,-0.31,-2.87,-87.24,1.97,0.24
8.344392,-0.0137,-1.0010,0.0601,-3.11,-0.12,-2.50,-87.29,1.92,0.24
8.373570,0.0049,-1.0293,-0.0229,1.89,-0.31,-0.92,-87.31,1.89,0.24
8.373570,-0.0225,-1.0049,0.0498,5.25,-0.55,-0.43,-87.23,1.88,0.25
8.404547,-0.0293,-0.9937,0.0811,5.19,-0.31,-0.24,-87.12,1.87,0.26
8.404547,-0.0234,-0.9888,0.1016,3.72,-0.12,-1.04,-87.02,1.86,0.26
8.464312,-0.0215,-0.9854,0.1094,2.32,-1.04,-0.98,-86.96,1.84,0.27
8.464312,-0.0234,-0.9980,0.0767,1.22,-2.62,-0.49,-86.93,1.83,0.31
8.493740,-0.0269,-1.0039,0.0605,2.50,-2.99,-0.98,-86.89,1.81,0.36
8.493740,-0.0498,-1.0034,0.0557,3.78,-4.21,-1.46,-86.82,1.79,0.43
8.524491,-0.0239,-1.0171,0.0308,6.16,-6.65,-1.53,-86.73,1.75,0.54
8.524491,-0.0200,-1.0181,0.0386,9.52,-9.83,-1.89,-86.56,1.70,0.70
8.584603,-0.0381,-1.3179,0.0405,18.31,-2.93,-6.96,-86.29,1.61,0.86
8.584603,0.1201,-1.2876,0.1230,21.55,5.19,-5.25,-85.86,1.46,0.76
8.613871,0.0693,-1.4199,0.2061,14.10,2.14,3.30,-85.50,1.47,0.70
8.613871,0.0547,-1.5586,0.1416,5.00,2.87,5.13,-85.33,1.56,0.66
8.644523,0.1030,-1.6621,0.0386,6.35,6.29,10.31,-85.23,1.72,0.59
8.644523,0.0776,-1.6533,0.0303,12.45,11.05,18.37,-85.03,2.04,0.45
8.704592,-0.0293,-1.5718,0.0977,15.38,12.39,22.77,-84.75,2.48,0.25
8.704592,-0.0952,-1.4702,0.2139,7.45,5.74,23.32,-84.51,2.97,0.13
8.733867,-0.0640,-1.3853,0.2461,-3.97,4.76,24.29,-84.49,3.46,0.10
8.733867,-0.1763,-1.3032,0.1978,-10.74,6.35,23.68,-84.66,3.96,0.05
8.794541,-0.3374,-1.2456,0.1528,-12.02,10.93,12.39,-84.90,4.35,-0.08
8.794541,-0.3730,-1.2427,0.1611,-12.27,14.77,-8.24,-85.16,4.42,-0.34
8.824575,-0.2539,-1.2075,0.1973,-18.74,12.70,-26.06,-85.48,4.08,-0.66
8.824575,-0.1323,-1.1543,0.1470,-23.93,7.08,-31.98,-85.93,3.50,-0.92
8.854465,-0.0181,-1.1406,0.1064,-22.09,8.36,-31.19,-86.41,2.88,-1.11
8.854465,0.0508,-1.1533,0.0088,-11.41,11.90,-24.66,-86.76,2.35,-1.37
8.914327,0.0938,-1.1064,0.0244,0.49,7.87,-17.03,-86.86,1.95,-1.60
8.914327,0.1567,-1.0103,0.1455,2.75,5.43,-6.84,-86.81,1.72,-1.75
8.943565,0.1152,-0.8804,0.1611,-0.49,2.75,9.16,-86.79,1.76,-1.85
8.943565,-0.0811,-0.8838,0.1992,-9.52,-3.48,14.71,-86.89,2.04,-1.79
8.974953,0.0020,-0.9048,0.1382,-9.95,2.87,10.56,-87.11,2.27,-1.77
8.974953,-0.0005,-0.8467,0.1299,-4.15,2.81,14.59,-87.24,2.54,-1.81
9.034722,-0.1328,-0.7876,0.0557,0.00,4.21,12.21,-87.28,2.82,-1.86
9.034722,-0.1660,-0.7969,0.0229,12.02,3.97,2.44,-87.17,2.98,-1.94
9.063493,0.0342,-0.7524,0.2812,12.39,3.72,1.28,-86.88,2.99,-2.01
9.063493,0.0605,-0.6758,0.3828,-8.67,5.31,12.51,-86.84,3.15,-2.09
9.094397,-0.1855,-0.6567,0.0752,-19.53,4.94,12.82,-87.18,3.45,-2.18
9.094397,-0.2856,-0.6855,-0.1245,-5.55,0.67,-4.52,-87.45,3.54,-2.22
9.154544,-0.0322,-0.6475,0.2036,-0.67,-5.00,-14.10,-87.44,3.31,-2.20
9.154544,0.1309,-0.6621,0.2607,-21.12,-5.19,-5.55,-87.67,3.10,-2.10
9.184242,0.1079,-0.6968,-0.0073,-25.57,-7.20,5.55,-88.17,3.11,-1.98
9.184242,0.0454,-0.6899,-0.1128,-15.01,-6.84,11.05,-88.57,3.28,-1.82
9.214620,0.0386,-0.6187,0.0063,-8.54,-5.92,15.50,-88.77,3.54,-1.69
9.214620,-0.0464,-0.5762,0.0327,-13.55,-7.63,17.64,-88.98,3.88,-1.53
9.274596,-0.1318,-0.5903,-0.0337,-14.40,-12.88,11.47,-89.26,4.17,-1.31
9.274596,-0.0752,-0.5981,0.0483,-14.22,-14.53,4.94,-89.52,4.32,-1.02
9.303766,-0.0142,-0.6528,0.0571,-18.07,-12.39,1.71,-89.83,4.37,-0.75
9.303766,0.0435,-0.7085,-0.0269,-16.05,-8.42,2.62,-90.16,4.41,-0.53
9.334618,0.0928,-0.7539,-0.0425,-7.14,-0.92,7.20,-90.39,4.50,-0.43
9.334618,0.0483,-0.7183,0.0405,-2.44,8.54,13.67,-90.47,4.72,-0.52
9.394599,-0.0312,-0.7036,0.0361,-2.26,13.73,15.93,-90.54,5.04,-0.75
9.394599,-0.1030,-0.6782,0.0342,-2.26,15.50,14.04,-90.60,5.34,-1.04
9.423645,-0.1714,-0.6582,0.0332,-4.09,14.47,8.54,-90.68,5.58,-1.35
9.423645,-0.1523,-0.6680,0.0259,-7.63,13.85,1.95,-90.83,5.69,-1.63
9.454276,-0.0879,-0.6846,-0.0391,-8.42,12.21,-1.04,-91.02,5.69,-1.89
9.454276,-0.0640,-0.7070,-0.0684,-5.43,11.11,-1.59,-91.18,5.67,-2.12
9.514635,-0.0254,-0.7271,-0.0093,-4.46,10.19,-0.18,-91.29,5.65,-2.33
9.514635,0.0503,-0.7578,0.0713,-5.00,13.98,5.25,-91.40,5.70,-2.58
9.543838,-0.0771,-0.7085,0.0854,-8.42,13.37,11.60,-91.55,5.88,-2.86
9.543838,-0.2769,-0.6343,0.1084,-11.90,11.47,6.96,-91.78,6.09,-3.11
9.574574,-0.4443,-0.6104,0.1475,-22.77,4.58,-12.76,-92.13,6.05,-3.27
9.574574,-0.2891,-0.6665,0.1362,-41.99,-5.80,-36.62,-92.78,5.52,-3.25
9.635089,-0.0005,-0.7808,0.0664,-54.69,-13.98,-40.10,-93.75,4.73,-3.01
9.635089,0.1890,-0.9316,-0.0967,-52.80,-10.38,-26.67,-94.83,4.06,-2.71
9.664468,0.2583,-1.0400,-0.2593,-33.63,-0.98,-5.37,-95.70,3.76,-2.58
9.664468,0.1934,-1.0537,-0.3125,-7.08,10.07,14.95,-96.10,3.87,-2.69
9.694561,-0.0347,-0.9619,-0.2373,12.63,13.73,23.93,-96.02,4.27,-2.98
9.694561,-0.2476,-0.9082,-0.0420,13.00,9.46,13.24,-95.75,4.65,-3.25
9.754611,-0.2358,-0.9263,0.0200,0.98,4.09,-5.43,-95.62,4.71,-3.38
9.754611,-0.0137,-1.0332,-0.0957,-1.34,2.75,-12.45,-95.65,4.49,-3.43
9.784106,0.1230,-1.1318,-0.2183,13.06,8.00,-2.44,-95.55,4.32,-3.51
9.784106,0.0425,-1.0996,-0.1738,26.25,12.76,6.96,-95.15,4.37,-3.74
9.814727,-0.0693,-1.0190,-0.0942,30.52,13.31,10.93,-94.59,4.55,-4.01
9.814727,-0.1636,-0.9697,-0.0879,29.91,10.44,8.61,-93.99,4.74,-4.27
9.874593,-0.2129,-0.9580,-0.0054,23.80,5.68,1.04,-93.46,4.83,-4.43
9.874593,-0.1543,-0.9736,0.0449,12.76,1.28,-7.26,-93.10,4.77,-4.49
9.903871,-0.0088,-1.0586,-0.0903,9.03,0.24,-8.54,-92.91,4.59,-4.49
9.903871,0.0889,-1.1187,-0.1836,21.06,2.81,-0.12,-92.61,4.50,-4.52
9.934717,-0.0420,-1.0264,-0.0371,24.72,0.92,8.48,-92.13,4.60,-4.57
9.934717,-0.1870,-0.9658,0.0576,14.65,-1.95,6.59,-91.72,4.77,-4.55
9.994599,-0.2422,-1.0029,-0.0605,8.48,-7.87,-2.56,-91.51,4.82,-4.47
9.994599,-0.1943,-1.0400,0.0083,7.75,-12.33,-13.92,-91.32,4.64,-4.25
10.026549,-0.0576,-1.0776,0.0732,1.95,-11.23,-18.13,-91.21,4.31,-4.00
10.026549,0.0518,-1.1553,-0.0332,2.20,-7.81,-10.80,-91.18,4.01,-3.81
10.056518,-0.0312,-1.1523,-0.0630,6.41,-10.25,-5.13,-91.07,3.87,-3.64
10.056518,-0.0225,-1.1367,-0.0493,6.35,-11.29,-4.21,-90.93,3.77,-3.42
10.114529,0.0117,-1.1279,-0.1147,10.31,-12.45,-0.55,-90.75,3.72,-3.19
10.114529,-0.0229,-1.0742,-0.0508,12.08,-17.27,3.78,-90.49,3.77,-2.88
10.143802,-0.0874,-1.0337,0.0435,4.27,-21.12,1.71,-90.30,3.82,-2.49
10.143802,-0.0498,-1.0615,-0.0337,-3.42,-25.82,1.40,-90.29,3.84,-2.02
10.204633,-0.0220,-1.1113,-0.1528,1.89,-25.94,5.31,-90.30,3.89,-1.48
10.204633,-0.1343,-1.0771,-0.1621,15.38,-24.60,6.16,-90.08,4.02,-0.98
10.233842,-0.2085,-1.0464,-0.0293,22.64,-23.19,-2.69,-89.65,4.05,-0.51
10.233842,-0.1567,-1.0898,0.0625,20.94,-22.58,-14.65,-89.19,3.85,-0.05
10.265012,-0.0288,-1.1655,0.1226,20.08,-21.30,-18.80,-88.75,3.48,0.37
10.265012,-0.0352,-1.1724,0.1890,15.69,-18.01,-17.46,-88.38,3.10,0.74
10.324605,0.0010,-1.1982,0.1494,13.73,-15.87,-15.50,-88.08,2.75,1.05
10.324605,-0.0234,-1.1870,0.1475,13.85,-12.45,-12.27,-87.80,2.47,1.32
10.353810,-0.1333,-1.1094,0.1709,13.12,-11.47,-13.98,-87.51,2.20,1.54
10.353810,-0.1143,-1.0874,0.2100,7.81,-10.07,-21.91,-87.30,1.82,1.73
10.385029,-0.0244,-1.1152,0.2026,2.75,-9.70,-26.00,-87.19,1.33,1.89
10.385029,1.7544,-1.8804,0.4878,-13.85,19.23,69.58,-87.23,1.47,1.74
10.444526,-0.7720,-1.0210,-0.2764,-8.97,-42.85,33.69,-87.52,2.64,2.21
10.444526,-0.3447,-0.8843,0.1245,5.13,-0.12,0.85,-87.49,2.86,2.61
10.473835,-0.2202,-0.9805,0.0479,6.59,2.56,-12.15,-87.37,2.74,2.54
10.473835,-0.0791,-0.9614,0.1836,2.62,2.44,-12.94,-87.27,2.48,2.47
10.504520,-0.1333,-0.9746,0.2559,-6.41,5.13,-19.96,-87.31,2.17,2.37
10.504520,0.2329,-1.0835,-0.0532,-8.91,1.95,-2.08,-87.50,1.93,2.30
10.564889,-0.0635,-1.0332,-0.0796,1.10,0.49,-2.87,-87.57,1.92,2.28
10.564889,-0.0024,-1.0063,0.0137,7.02,1.34,-0.12,-87.47,1.90,2.25
10.593839,0.0181,-0.9790,0.1484,5.31,-0.31,0.73,-87.33,1.90,2.25
10.593839,-0.0293,-0.9482,0.2227,-2.69,0.18,0.49,-87.30,1.91,2.25
10.624605,-0.0078,-0.9907,0.1040,-7.45,1.28,0.18,-87.42,1.92,2.24
10.624605,-0.0049,-1.0288,-0.0229,-3.85,2.99,0.37,-87.54,1.93,2.19
10.685159,-0.0303,-1.0166,0.0000,1.53,1.34,1.22,-87.56,1.96,2.14
10.685159,-0.0718,-0.9893,0.0688,2.56,0.18,-0.18,-87.51,1.97,2.13
10.715073,-0.0547,-0.9854,0.0894,0.85,-0.31,-1.71,-87.47,1.95,2.13
10.715073,-0.0186,-0.9956,0.0708,0.00,-0.06,-1.34,-87.46,1.92,2.13
10.744611,-0.0166,-1.0034,0.0483,0.79,0.00,-1.10,-87.46,1.90,2.13
10.744611,-0.0122,-1.0020,0.0601,2.56,-0.18,-0.55,-87.42,1.88,2.13
10.804595,-0.0005,-0.9990,0.0728,2.75,-0.98,0.06,-87.36,1.88,2.14
10.804595,-0.0332,-0.9858,0.1030,1.89,-1.59,0.24,-87.31,1.89,2.17
10.833907,-0.0303,-0.9790,0.1328,-0.98,-1.77,0.06,-87.30,1.89,2.20
10.833907,-0.0161,-1.0054,0.0537,-2.26,-2.14,0.00,-87.34,1.89,2.24
10.865156,-0.0317,-1.0190,-0.0059,1.89,-2.26,-0.18,-87.34,1.88,2.28
10.865156,-0.0273,-1.0010,0.0635,4.03,-2.01,-0.37,-87.27,1.88,2.32
10.924628,-0.0552,-1.0049,0.0312,3.42,0.67,-1.34,-87.20,1.87,2.33
10.924628,-0.0513,-1.0288,-0.0312,7.51,-0.06,-2.75,-87.09,1.83,2.33
10.953843,-0.0737,-1.0396,-0.0518,14.65,-2.69,-5.98,-86.86,1.75,2.34
10.953843,0.0908,-1.2559,0.0713,16.17,0.92,-7.51,-86.54,1.59,2.35
10.985231,0.1792,-1.4116,0.1162,14.47,-2.08,5.00,-86.23,1.57,2.37
10.985231,0.1040,-1.4722,0.2070,6.96,-1.59,15.69,-86.01,1.79,2.42
11.044620,0.0098,-1.4995,0.2041,-5.19,-3.30,21.06,-85.99,2.16,2.51
11.044620,-0.0278,-1.5449,0.1196,-12.15,-1.59,23.01,-86.18,2.60,2.60
11.073852,-0.0269,-1.5493,0.1299,-14.47,0.31,25.02,-86.44,3.08,2.66
11.073852,-0.0366,-1.5400,0.1655,-20.75,2.44,27.89,-86.79,3.61,2.68
11.104586,-0.0708,-1.5259,0.1094,-25.57,6.41,30.03,-87.27,4.20,2.63
11.104586,-0.1660,-1.4619,0.0317,-25.88,10.44,29.24,-87.80,4.82,2.50
11.165423,-0.2705,-1.4087,0.0127,-25.63,11.47,19.23,-88.32,5.33,2.31
11.165423,-0.2607,-1.3638,0.0103,-25.21,11.96,6.90,-88.85,5.59,2.09
11.193870,-0.0854,-1.3867,-0.0127,-19.23,15.26,1.10,-89.32,5.66,1.81
11.193870,0.0181,-1.3291,0.0591,-15.62,14.53,7.81,-89.69,5.76,1.52
11.224645,0.0039,-1.2241,0.0835,-16.36,15.99,14.71,-90.03,6.00,1.22
11.224645,-0.0928,-1.1128,-0.0596,-15.26,15.20,17.64,-90.39,6.34,0.90
11.285093,-0.1753,-1.0337,-0.1860,-2.01,10.62,14.77,-90.60,6.69,0.65
11.285093,-0.0938,-0.9629,0.1299,7.45,9.83,8.73,-90.52,6.91,0.45
11.315465,-0.0195,-0.8296,0.4746,-16.91,5.31,13.98,-90.59,7.14,0.30
11.315465,-0.2441,-0.7568,0.2817,-49.50,-4.76,15.26,-91.30,7.46,0.29
11.344605,-0.4272,-0.7993,-0.1372,-51.21,-12.63,-2.93,-92.36,7.60,0.48
11.344605,-0.2656,-0.8989,-0.2026,-23.50,-13.18,-23.01,-93.07,7.32,0.76
11.404625,0.1958,-0.9282,0.2266,-13.12,-12.08,-15.93,-93.33,6.88,1.03
11.404625,0.2021,-0.9102,0.3174,-26.25,-8.85,15.50,-93.72,6.91,1.24
11.433938,-0.1382,-0.7988,0.1631,-28.99,-8.24,25.70,-94.27,7.38,1.40
11.433938,-0.3350,-0.7041,0.0532,-22.16,-2.50,13.67,-94.78,7.80,1.47
11.467526,-0.2495,-0.6807,0.0332,-18.13,-5.25,1.16,-95.16,7.93,1.53
11.467526,-0.0786,-0.7324,0.0674,-17.40,-2.44,-0.18,-95.50,7.93,1.63
11.524661,-0.0479,-0.7378,0.0400,-13.37,5.25,5.55,-95.81,7.99,1.60
11.524661,-0.0903,-0.6851,0.0298,-12.51,9.95,8.06,-96.08,8.12,1.42
11.554998,-0.1567,-0.5732,0.0181,-22.95,5.80,8.06,-96.44,8.28,1.23
11.554998,-0.2192,-0.5703,-0.1567,-34.61,-4.15,1.16,-97.04,8.38,1.21
11.615753,-0.1562,-0.6509,-0.3267,-27.16,-9.40,-3.05,-97.67,8.37,1.37
11.615753,0.0117,-0.7192,-0.1851,-12.82,-5.80,0.67,-98.02,8.34,1.53
11.643883,0.0474,-0.7148,-0.0679,-8.06,1.16,14.04,-98.21,8.50,1.56
11.643883,-0.1138,-0.6533,-0.0557,-6.84,5.80,18.68,-98.37,8.85,1.43
11.674647,-0.2012,-0.5918,-0.0903,-9.89,5.80,14.34,-98.56,9.17,1.27
11.674647,-0.2319,-0.5757,-0.1362,-12.76,0.98,6.65,-98.80,9.37,1.17
11.734714,-0.1533,-0.5796,-0.0654,-16.78,-1.71,1.65,-99.09,9.44,1.19
11.734714,-0.1401,-0.5967,-0.1265,-20.75,0.61,1.40,-99.48,9.48,1.19
11.763842,-0.1260,-0.6343,-0.2119,-12.70,5.62,0.06,-99.83,9.49,1.13
11.763842,-0.0845,-0.6382,-0.2075,-0.79,14.16,2.44,-99.99,9.48,0.92
11.794621,-0.1860,-0.5762,-0.1470,5.49,17.58,3.66,-99.97,9.51,0.58
11.794621,-0.2856,-0.5166,-0.0723,1.22,16.48,-4.52,-99.94,9.46,0.24
11.854647,-0.2378,-0.5479,-0.1255,-4.39,14.77,-16.30,-100.03,9.20,-0.04
11.854647,-0.0625,-0.6333,-0.1499,-4.76,12.27,-19.53,-100.16,8.78,-0.24
11.884277,0.0801,-0.7109,-0.1802,5.00,19.84,-10.31,-100.21,8.44,-0.51
11.884277,0.0366,-0.6948,-0.1602,24.48,33.94,3.11,-99.98,8.30,-1.03
11.915853,-0.1519,-0.6421,-0.1021,44.62,51.21,5.43,-99.38,8.29,-1.92
11.915853,-0.2847,-0.5879,0.0400,53.65,62.68,-3.17,-98.50,8.17,-3.08
11.974730,-0.4116,-0.5400,0.1572,28.99,53.41,-24.90,-97.78,7.77,-4.26
11.974730,-0.1299,-0.6509,0.1143,-6.35,30.70,-43.88,-97.68,6.96,-5.00
12.004635,0.2324,-0.8579,-0.0396,-21.61,20.20,-40.71,-98.05,6.03,-5.37
12.004635,0.3960,-1.0342,-0.3403,-3.36,26.92,-18.01,-98.37,5.39,-5.76
12.034659,0.3184,-1.0200,-0.3853,27.71,39.12,7.57,-98.15,5.23,-6.42
12.034659,0.0337,-0.8638,-0.3486,42.60,39.12,22.40,-97.47,5.49,-7.26
12.094696,-0.0977,-0.7646,-0.1123,39.37,21.61,17.40,-96.67,5.83,-7.93
12.094696,-0.1138,-0.7056,0.2837,11.23,0.49,10.38,-96.17,6.10,-8.14
12.123835,0.0176,-0.9062,0.0854,-14.71,-1.53,5.49,-96.27,6.23,-8.12
12.123835,0.1172,-1.0376,-0.3252,0.31,-1.16,19.71,-96.46,6.48,-8.10
12.154686,-0.0332,-0.9736,-0.3813,31.92,7.51,30.09,-96.12,7.00,-8.23
12.154686,-0.1650,-0.8945,-0.1650,50.05,6.47,27.95,-95.28,7.59,-8.42
12.216082,-0.1240,-0.9521,-0.0034,51.09,2.44,25.88,-94.26,8.11,-8.53
12.216082,-0.1660,-0.9824,0.1025,43.82,3.30,28.14,-93.32,8.66,-8.60
12.243840,-0.4150,-0.8672,0.1006,28.26,-3.30,18.86,-92.59,9.16,-8.64
12.243840,-0.5000,-0.8394,0.0952,10.01,-15.93,-7.69,-92.19,9.27,-8.44
12.274632,-0.3984,-0.8735,0.1836,-14.10,-28.50,-28.99,-92.16,8.88,-7.97
12.274632,-0.1968,-1.0483,-0.0225,-29.66,-28.93,-36.87,-92.58,8.19,-7.37
12.334706,-0.0396,-1.2642,-0.3101,-14.53,-22.16,-31.98,-92.99,7.51,-6.82
12.334706,0.0576,-1.3076,-0.3809,14.40,-18.49,-12.33,-92.92,7.08,-6.42
12.363887,-0.1040,-1.2598,-0.2109,31.98,-19.17,-2.62,-92.38,6.97,-6.04
12.363887,-0.1997,-1.2085,0.0117,39.67,-21.97,-0.85,-91.59,6.95,-5.62
12.394657,-0.2456,-1.1846,0.2227,27.47,-19.84,-6.35,-90.86,6.88,-5.20
12.394657,-0.1387,-1.2246,0.1021,17.58,-15.50,-6.29,-90.40,6.74,-4.84
12.453913,-0.2236,-1.1733,-0.0073,17.64,-14.65,-5.68,-90.02,6.63,-4.56
12.453913,-0.2891,-1.1572,0.0693,15.32,-20.87,-15.38,-89.64,6.42,-4.20
12.484192,-0.1206,-1.2402,0.0908,12.76,-17.64,-19.35,-89.34,6.04,-3.82
12.484192,-0.1011,-1.2676,0.0605,12.51,-13.85,-17.64,-89.06,5.66,-3.52
12.513979,-0.0762,-1.3042,0.0337,15.81,-12.02,-16.97,-88.76,5.31,-3.27
12.513979,0.0557,-1.3369,0.0884,17.52,-8.67,-9.52,-88.40,5.02,-3.09
12.573882,-0.0210,-1.3022,0.0254,17.27,-9.77,1.28,-88.04,4.95,-2.91
12.573882,-0.2036,-1.2026,-0.0464,21.42,-12.70,-0.92,-87.64,4.97,-2.68
12.603988,-0.2466,-1.1206,0.0776,22.28,-13.92,-12.82,-87.17,4.81,-2.42
12.603988,-0.1182,-1.1587,0.1338,20.94,-10.13,-22.22,-86.73,4.42,-2.21
12.633901,0.0366,-1.1973,0.2329,18.55,-5.74,-18.37,-86.32,3.99,-2.08
12.633901,0.0342,-1.1816,0.2256,15.01,-3.54,-9.46,-85.98,3.72,-2.03
12.693865,-0.0581,-1.1045,0.2383,9.83,-2.38,-6.84,-85.73,3.57,-1.98
12.693865,0.1709,-1.2446,0.9448,-18.98,15.56,-16.85,-85.66,3.33,-2.05
12.723881,-0.0630,-1.1855,-0.0864,-32.04,-18.43,11.05,-86.36,3.38,-1.88
12.723881,-0.3354,-0.9946,-0.1973,-2.20,5.07,-8.91,-86.69,3.39,-1.79
12.753946,0.0166,-0.9980,0.0840,1.28,0.43,-16.72,-86.65,3.08,-1.91
12.753946,-0.0483,-0.9858,0.1133,-1.40,-4.03,-11.47,-86.65,2.82,-1.87
12.816920,-0.0474,-0.9702,0.1602,-4.21,1.53,-15.44,-86.71,2.55,-1.87
12.816920,0.0532,-0.9785,0.2173,-10.68,1.89,-11.54,-86.85,2.28,-1.93
12.846593,-0.0479,-0.9966,0.0400,-12.27,3.36,-11.29,-87.11,2.08,-2.00
12.846593,0.0444,-1.0366,0.0083,-7.39,4.39,-10.50,-87.30,1.85,-2.10
12.874099,0.0513,-1.0283,0.0269,-4.76,2.87,-5.19,-87.42,1.71,-2.18
12.874099,0.0439,-1.0322,0.0039,-2.01,2.20,-1.89,-87.48,1.65,-2.24
12.933937,0.0327,-1.0269,0.0000,1.10,0.37,2.26,-87.50,1.66,-2.26
12.933937,-0.0024,-1.0229,-0.0010,4.58,-0.31,4.39,-87.43,1.74,-2.26
12.963935,-0.0181,-1.0107,0.0396,7.63,-1.46,4.82,-87.30,1.83,-2.23
12.963935,-0.0557,-0.9805,0.1006,7.20,-2.56,4.88,-87.15,1.93,-2.18
13.024709,-0.1021,-0.9575,0.1436,4.39,-2.01,1.46,-87.03,1.99,-2.13
13.024709,-0.1055,-0.9541,0.1533,0.43,-2.01,-3.11,-86.98,1.98,-2.09
13.054043,-0.0767,-0.9692,0.1362,-3.05,-2.14,-6.90,-87.01,1.87,-2.05
13.054043,-0.0488,-0.9795,0.1191,-5.19,-2.26,-8.73,-87.09,1.71,-2.02
13.085247,0.0430,-1.0112,0.0845,-6.84,-2.32,-7.32,-87.21,1.54,-1.99
13.085247,0.0352,-1.0420,-0.0269,-3.05,0.31,-0.24,-87.32,1.47,-1.97
13.144711,0.0000,-1.0303,-0.0171,2.75,-1.71,-0.55,-87.31,1.47,-1.96
13.144711,-0.0571,-1.0181,-0.0127,6.47,-1.10,-0.85,-87.21,1.46,-1.93
13.173815,-0.0322,-1.0342,-0.0269,11.47,0.12,-4.46,-87.03,1.40,-1.92
13.173815,-0.1011,-1.1514,0.0425,18.01,2.87,-8.06,-86.73,1.30,-1.96
13.204615,0.0737,-1.2373,0.2720,5.74,-2.44,-11.54,-86.46,1.07,-2.00
13.204615,0.1655,-1.3931,0.2515,-11.60,-3.23,-0.37,-86.54,0.95,-1.94
13.264703,0.0942,-1.4824,0.0923,-14.83,-2.99,8.54,-86.84,1.04,-1.87
13.264703,0.0522,-1.4736,0.0874,-13.37,-0.43,14.83,-87.11,1.29,-1.82
13.293936,-0.0024,-1.4570,0.0645,-14.53,0.31,18.68,-87.39,1.63,-1.79
13.293936,-0.0366,-1.4282,0.0596,-14.47,1.89,19.96,-87.68,2.02,-1.79
13.324604,-0.0820,-1.3979,0.1577,-19.17,1.53,18.49,-88.01,2.42,-1.80
13.324604,-0.0801,-1.4048,0.2334,-32.29,4.64,15.14,-88.53,2.75,-1.85
13.384882,-0.0742,-1.4189,0.1309,-44.98,5.07,13.06,-89.33,3.04,-1.93
13.384882,-0.0630,-1.4116,-0.0117,-45.65,6.59,11.17,-90.25,3.29,-2.04
13.413902,-0.0190,-1.3813,-0.0024,-44.74,5.31,11.66,-91.15,3.52,-2.16
13.413902,-0.0190,-1.3472,-0.0728,-43.21,5.55,16.30,-92.05,3.80,-2.27
13.444681,-0.0845,-1.3169,-0.1733,-29.85,12.21,15.81,-92.80,4.13,-2.46
13.444681,-0.1230,-1.2144,-0.0820,-21.73,10.86,14.95,-93.30,4.43,-2.70
13.504750,-0.1646,-1.1299,-0.0479,-21.42,7.57,10.74,-93.74,4.69,-2.90
13.504750,-0.1802,-1.0933,-0.0854,-19.04,3.36,3.91,-94.16,4.83,-3.01
13.533969,-0.0210,-1.1064,-0.0703,-9.95,6.35,2.14,-94.46,4.87,-3.10
13.533969,-0.0640,-1.0259,-0.0264,-2.08,11.84,7.87,-94.58,4.98,-3.28
13.564679,-0.1958,-0.9233,0.0293,-0.55,14.16,3.11,-94.61,5.09,-3.58
13.564679,-0.2397,-0.8501,0.0122,-10.31,7.45,-5.37,-94.74,5.05,-3.79
13.624703,-0.2021,-0.8794,-0.1128,-10.25,-0.12,-16.60,-94.97,4.82,-3.85
13.624703,0.0093,-1.0156,-0.0596,-0.61,-2.01,-20.94,-95.08,4.44,-3.78
13.653995,0.3120,-1.0112,0.2812,-6.29,-5.86,-2.44,-95.09,4.17,-3.70
13.653995,0.1138,-0.9790,0.1992,-22.77,-4.27,19.84,-95.41,4.41,-3.59
13.685042,-0.2837,-0.8940,-0.0952,-13.24,-0.61,9.09,-95.80,4.75,-3.57
13.685042,0.0244,-0.8779,-0.0278,4.21,1.22,-1.22,-95.86,4.77,-3.60
13.744702,0.2378,-0.7744,0.2422,-8.79,-2.38,19.65,-95.86,4.94,-3.60
13.744702,0.0723,-0.7148,0.0405,-23.07,-6.16,38.27,-96.22,5.56,-3.55
13.773935,-0.1362,-0.6499,-0.1460,-12.33,-4.70,39.06,-96.59,6.37,-3.50
13.773935,-0.2280,-0.5620,-0.1294,-1.04,-0.24,32.59,-96.71,7.10,-3.53
13.804737,-0.2354,-0.5518,-0.0479,1.04,-4.09,22.09,-96.69,7.64,-3.54
13.804737,-0.1436,-0.5391,0.1445,-7.08,-9.58,17.94,-96.72,8.04,-3.44
13.864701,-0.1792,-0.5117,0.1445,-21.36,-9.16,17.64,-97.00,8.42,-3.27
13.864701,-0.2290,-0.4966,-0.0156,-21.85,-4.76,11.29,-97.43,8.73,-3.15
13.895150,-0.2324,-0.4702,-0.1235,-16.42,2.32,5.37,-97.82,8.89,-3.15
13.895150,-0.2656,-0.4312,-0.1953,-10.68,4.82,-2.38,-98.09,8.92,-3.24
13.923962,-0.1992,-0.4175,-0.1914,-7.39,4.46,-9.03,-98.27,8.78,-3.32
13.923962,-0.1958,-0.4053,-0.1792,-7.63,1.95,-13.12,-98.42,8.56,-3.36
13.985105,-0.1494,-0.4092,-0.1543,-12.08,0.79,-17.21,-98.61,8.25,-3.35
13.985105,-0.1377,-0.4380,-0.2563,-13.06,-0.37,-18.43,-98.87,7.90,-3.31
14.013932,-0.1704,-0.4717,-0.3071,-7.26,0.00,-23.56,-99.06,7.49,-3.24
14.013932,-0.0811,-0.5298,-0.3008,-1.53,0.49,-26.00,-99.15,6.99,-3.18
14.044748,0.0078,-0.5703,-0.2407,3.85,2.56,-22.77,-99.11,6.50,-3.15
14.044748,-0.0244,-0.5371,-0.1953,5.25,0.55,-19.59,-99.01,6.09,-3.13
14.105092,0.0518,-0.5239,-0.1147,0.67,-2.99,-18.25,-98.94,5.72,-3.04
14.105092,0.2505,-0.6362,-0.3149,6.41,2.87,-3.23,-98.89,5.49,-3.00
14.135230,0.0674,-0.5928,-0.4253,20.02,4.27,13.49,-98.62,5.62,-3.11
14.135230,-0.2134,-0.4917,-0.4092,28.08,-4.64,8.85,-98.13,5.87,-3.15
14.163894,-0.2822,-0.4941,-0.1587,28.20,-13.92,-11.23,-97.53,5.87,-2.95
14.163894,-0.1343,-0.6279,0.0425,20.45,-17.94,-27.40,-97.01,5.50,-2.58
14.224694,0.0786,-0.8018,0.1221,14.53,-15.20,-25.94,-96.65,4.97,-2.18
14.224694,0.0161,-0.8779,0.1196,22.34,-4.27,-18.86,-96.27,4.56,-1.95
14.253934,-0.0986,-0.8789,0.2197,21.24,3.78,-23.74,-95.81,4.16,-1.92
14.253934,0.0410,-0.9434,0.1807,15.01,1.77,-27.77,-95.45,3.63,-1.96
14.314703,0.2300,-1.0049,0.2075,3.60,-2.75,-21.12,-95.26,3.12,-1.91
14.314703,0.0356,-0.9512,0.1479,-2.32,-6.47,-10.31,-95.26,2.85,-1.79
14.343958,-0.1021,-0.9619,0.1133,-8.00,1.59,-20.02,-95.37,2.55,-1.70
14.343958,0.0752,-1.0503,-0.0771,1.10,3.66,-21.67,-95.45,2.12,-1.74
14.374650,0.1411,-1.0610,-0.0659,4.03,1.46,-10.38,-95.38,1.79,-1.77
14.374650,-0.1289,-0.9902,-0.0513,5.80,-4.52,-6.23,-95.28,1.66,-1.73
14.434759,-0.1064,-1.0356,-0.1440,8.18,1.34,-15.87,-95.16,1.44,-1.67
14.434759,0.1646,-1.1655,-0.2217,26.92,1.77,-10.86,-94.80,1.14,-1.69
14.463923,0.1880,-1.1831,-0.0835,33.39,-1.65,6.04,-94.16,1.11,-1.70
14.463923,-0.0781,-1.1406,-0.0200,27.22,-6.16,12.57,-93.55,1.33,-1.61
14.494773,-0.1973,-1.1860,-0.2070,34.24,-5.86,4.58,-92.96,1.52,-1.51
14.494773,-0.1113,-1.2363,-0.0312,46.51,-5.13,-3.97,-92.12,1.52,-1.39
14.554930,-0.0493,-1.2427,0.3350,34.48,-6.41,-6.35,-91.26,1.40,-1.29
14.554930,-0.2266,-1.2588,0.3721,2.93,-11.05,-12.45,-90.91,1.24,-1.10
14.584558,-0.1372,-1.4097,-0.0210,-6.35,-7.08,-22.46,-91.01,0.86,-0.92
14.584558,0.0698,-1.5244,-0.1338,7.02,-2.50,-20.32,-90.99,0.42,-0.84
14.614721,0.0381,-1.4756,-0.0269,13.24,-2.20,-11.11,-90.76,0.13,-0.80
14.614721,-0.0654,-1.3989,-0.0122,10.68,-0.31,-15.62,-90.52,-0.13,-0.77
14.674751,0.0986,-1.3750,-0.1021,15.20,-4.88,-16.97,-90.27,-0.47,-0.73
14.674751,0.2104,-1.2695,-0.0332,15.81,-7.20,-8.73,-89.95,-0.73,-0.61
14.704898,0.1855,-1.1289,0.0898,12.08,-11.05,1.95,-89.66,-0.80,-0.42
14.704898,-0.0693,-1.0103,0.0410,6.53,-7.81,1.65,-89.49,-0.73,-0.23
14.734706,-0.1558,-0.9600,0.0205,6.90,-8.24,-12.88,-89.36,-0.85,-0.07
14.734706,-0.0859,-0.9282,0.1841,-2.50,-9.34,-25.57,-89.31,-1.25,0.08
14.794746,-0.0483,-0.9521,0.1602,-16.11,-9.46,-36.50,-89.52,-1.88,0.26
14.794746,3.6235,-2.3481,0.2031,-4.15,34.73,62.32,-89.76,-2.21,0.16
14.824799,-1.9653,-1.1494,-0.9307,59.88,-36.07,101.50,-89.21,0.48,0.29
14.824799,-0.2510,-1.0322,0.2573,36.68,-5.31,31.43,-88.21,1.36,0.58
14.854844,-0.5195,-0.6963,0.6201,3.05,-24.78,-1.40,-87.77,1.61,0.96
14.854844,0.0498,-0.9907,0.2617,-10.80,2.20,-5.31,-87.92,1.45,1.15
14.914710,-0.0151,-1.0249,0.0176,-8.54,-1.46,-1.40,-88.12,1.40,1.13
14.914710,0.0483,-1.0449,-0.0488,-2.62,0.24,-2.50,-88.24,1.35,1.13
14.943951,0.0371,-1.0459,-0.1006,6.10,-0.06,1.53,-88.20,1.36,1.13
14.943951,0.0195,-0.9956,0.0654,10.07,-0.61,4.21,-88.02,1.42,1.14
14.974765,-0.0967,-0.9492,0.1895,4.82,-0.31,1.04,-87.86,1.49,1.16
14.974765,-0.0752,-0.9575,0.1860,-2.87,-0.06,-3.42,-87.84,1.46,1.16
15.035007,0.0273,-0.9893,0.1030,-6.84,0.43,-3.54,-87.95,1.38,1.15
15.035007,0.0547,-1.0249,-0.0103,-4.88,0.61,0.00,-88.08,1.36,1.13
15.063953,0.0063,-1.0176,0.0088,0.12,0.00,3.11,-88.12,1.40,1.13
15.063953,-0.0723,-0.9810,0.0898,0.12,0.31,1.59,-88.10,1.45,1.13
15.094725,-0.0708,-0.9902,0.0542,-1.53,0.61,-1.46,-88.12,1.46,1.12
15.094725,-0.0088,-1.0132,0.0039,0.00,0.00,-2.01,-88.14,1.42,1.11
15.154796,0.0127,-0.9995,0.0537,1.46,-0.31,-0.67,-88.12,1.40,1.12
15.154796,-0.0215,-0.9834,0.1050,-0.24,-0.31,-0.43,-88.10,1.38,1.12
15.184990,-0.0034,-0.9951,0.0659,-1.95,-2.75,-0.06,-88.13,1.38,1.15
15.184990,0.0000,-0.9976,0.0615,-1.46,-3.23,1.16,-88.16,1.39,1.22
15.214695,-0.0088,-0.9971,0.0698,-1.22,-1.65,1.10,-88.19,1.41,1.27
15.214695,-0.0332,-0.9912,0.0791,-1.83,-1.59,0.49,-88.21,1.43,1.30
15.275152,-0.0444,-0.9883,0.0908,-3.60,-2.56,-0.85,-88.27,1.43,1.35
15.275152,-0.0249,-0.9985,0.0557,-4.15,-2.62,-2.08,-88.35,1.40,1.39
15.303965,0.0010,-1.0127,0.0117,-2.87,-3.72,-1.65,-88.42,1.36,1.46
15.303965,0.0112,-1.0122,0.0107,-0.67,-3.85,-0.49,-88.45,1.33,1.53
15.335199,-0.0024,-1.0044,0.0361,0.92,-1.10,-0.67,-88.45,1.32,1.58
15.335199,-0.0146,-1.0059,0.0376,0.67,0.06,-0.85,-88.43,1.31,1.59
15.395126,-0.0547,-1.0303,-0.0229,5.19,4.03,-3.78,-88.37,1.28,1.53
15.395126,-0.2036,-1.0908,-0.1143,18.01,5.55,-11.29,-88.15,1.16,1.43
15.423972,-0.0156,-1.2227,0.1519,21.12,8.06,-22.28,-87.71,0.80,1.29
15.423972,0.2329,-1.4248,0.2710,5.00,6.23,-11.23,-87.44,0.47,1.10
15.454878,0.2354,-1.5161,0.2349,-16.48,1.34,4.88,-87.57,0.43,1.03
15.454878,0.1870,-1.5806,-0.0098,-25.33,-0.67,17.52,-88.03,0.67,1.04
15.514749,0.1665,-1.5815,-0.1338,-19.10,-1.22,30.15,-88.48,1.15,1.09
15.514749,0.0220,-1.4907,-0.1450,-10.13,-0.85,38.94,-88.77,1.86,1.15
15.544015,-0.0742,-1.4229,-0.0742,-3.97,0.43,37.72,-88.90,2.64,1.19
15.544015,-0.0103,-1.3511,0.1494,-9.34,0.61,39.43,-88.99,3.40,1.21
15.574750,-0.1963,-1.2554,0.1621,-26.31,-1.04,36.80,-89.36,4.19,1.24
15.574750,-0.2935,-1.2056,0.0835,-37.48,-2.50,22.71,-90.02,4.78,1.30
15.635470,-0.2930,-1.1948,-0.0151,-40.16,3.11,7.93,-90.81,5.09,1.31
15.635470,-0.2114,-1.2036,-0.1230,-31.49,6.35,-2.99,-91.54,5.12,1.20
15.663935,-0.0498,-1.1514,0.0752,-31.86,4.94,-4.58,-92.15,5.02,1.08
15.663935,-0.1475,-1.0415,0.0649,-49.01,-4.39,-2.20,-92.97,4.98,1.07
15.694765,-0.2539,-1.0020,-0.1294,-54.08,-11.78,-14.77,-94.02,4.82,1.25
15.694765,-0.1636,-1.0000,-0.2559,-45.23,-12.76,-25.02,-95.00,4.42,1.53
15.754863,0.0405,-1.0830,-0.2607,-27.34,-9.22,-27.16,-95.72,3.90,1.80
15.754863,0.2046,-1.0757,-0.0850,-14.28,-13.18,-10.68,-96.08,3.53,2.04
15.785548,0.1333,-1.0166,0.0884,-17.94,-21.06,8.54,-96.37,3.55,2.38
15.785548,-0.0972,-0.9365,0.0967,-26.31,-26.25,14.34,-96.80,3.87,2.85
15.844807,-0.2046,-0.8955,-0.0122,-23.13,-26.25,6.65,-97.28,4.14,3.35
15.844807,-0.0244,-0.9155,0.1089,-20.75,-24.90,2.14,-97.67,4.25,3.86
15.874002,0.1074,-0.9712,0.0615,-21.18,-20.08,12.82,-98.08,4.45,4.29
15.874002,0.0752,-0.9395,0.0854,-17.21,-15.93,25.45,-98.43,4.88,4.60
15.904861,-0.0596,-0.8491,0.1040,-16.30,-9.70,30.40,-98.75,5.49,4.78
15.904861,-0.2290,-0.7515,0.0894,-17.64,-7.32,24.05,-99.07,6.07,4.87
15.964756,-0.2354,-0.7046,0.0903,-23.74,-8.06,13.43,-99.48,6.46,4.97
15.964756,-0.0444,-0.7554,0.1187,-28.69,-6.29,9.46,-99.99,6.68,5.09
15.993971,0.0103,-0.7734,0.0244,-32.47,-1.16,17.70,-100.61,6.97,5.11
15.993971,-0.0815,-0.7192,-0.0806,-28.81,1.22,20.94,-101.23,7.37,5.04
16.024736,-0.1050,-0.6470,-0.0576,-25.94,2.38,19.17,-101.78,7.76,4.93
16.024736,-0.1201,-0.5879,-0.0586,-29.48,2.01,16.66,-102.34,8.11,4.83
16.085458,-0.0815,-0.5493,-0.1157,-28.93,2.69,14.40,-102.94,8.40,4.72
16.085458,0.0513,-0.4961,-0.1001,-28.93,6.16,18.13,-103.54,8.69,4.56
16.116671,-0.0220,-0.3926,-0.1909,-28.38,8.30,25.88,-104.14,9.11,4.32
16.116671,-0.1611,-0.3125,-0.3237,-19.96,9.22,22.64,-104.68,9.56,4.03
16.146717,-0.1494,-0.2866,-0.2896,-12.88,9.52,17.76,-105.03,9.90,3.75
16.146717,-0.2061,-0.2793,-0.3540,-5.74,11.78,18.07,-105.27,10.20,3.45
16.204784,-0.4102,-0.2622,-0.3228,4.88,14.89,5.92,-105.33,10.39,3.13
16.204784,-0.3940,-0.3066,-0.2495,12.33,17.33,-13.79,-105.19,10.22,2.82
16.234008,-0.2339,-0.3926,-0.1050,9.28,16.91,-26.31,-104.99,9.73,2.58
16.234008,-0.1167,-0.5059,-0.1533,0.85,12.88,-29.05,-104.92,9.11,2.42
16.264699,-0.0952,-0.6084,-0.2808,1.89,9.09,-30.27,-104.93,8.50,2.35
16.264699,0.0186,-0.6885,-0.2773,15.26,12.88,-29.11,-104.77,7.86,2.29
16.324792,0.1968,-0.7324,-0.1709,28.99,18.49,-18.92,-104.33,7.31,2.08
16.324792,0.2583,-0.7856,-0.0869,39.98,24.35,-0.61,-103.67,7.03,1.70
16.354013,0.0933,-0.7358,-0.0527,44.49,28.20,17.03,-102.87,7.11,1.13
16.354013,-0.2744,-0.5972,-0.0249,38.02,21.12,15.14,-102.09,7.38,0.56
16.385879,-0.4321,-0.5322,0.0562,19.35,8.61,-6.90,-101.55,7.42,0.25
16.385879,-0.3984,-0.5854,0.0962,-1.34,2.50,-32.90,-101.38,6.99,0.23
16.444790,-0.0693,-0.8193,-0.0083,-15.69,0.73,-48.89,-101.57,6.14,0.35
16.444790,0.1426,-1.0474,-0.2056,-16.36,3.23,-39.73,-101.91,5.25,0.49
16.474007,0.0864,-1.1602,-0.5327,9.95,11.84,-25.02,-102.00,4.60,0.45
16.474007,-0.0762,-1.0947,-0.3745,35.89,16.66,-21.48,-101.50,4.11,0.24
16.504876,-0.0903,-1.0713,-0.0854,35.46,13.61,-27.34,-100.76,3.59,0.02
16.504876,0.1216,-1.2461,-0.1479,31.01,9.52,-26.73,-100.12,2.99,-0.13
16.564769,0.1235,-1.2803,-0.1724,32.10,7.20,-13.61,-99.49,2.58,-0.23
16.564769,-0.0747,-1.1914,-0.1479,33.87,6.71,-13.43,-98.82,2.32,-0.33
16.593994,0.0493,-1.2559,-0.2319,34.48,9.89,-13.92,-98.16,2.01,-0.46
16.593994,0.1118,-1.2974,-0.3281,47.30,8.67,-3.30,-97.34,1.82,-0.64
16.624767,-0.0176,-1.2017,-0.2090,57.74,4.70,1.95,-96.27,1.82,-0.77
16.624767,-0.1221,-1.1123,-0.0044,50.84,0.18,-1.10,-95.16,1.83,-0.81
16.686117,-0.2080,-1.1289,-0.0464,40.71,-2.20,-11.54,-94.26,1.72,-0.78
16.686117,-0.1626,-1.1841,-0.0879,39.55,-3.48,-21.73,-93.46,1.38,-0.71
16.713982,-0.0957,-1.2324,-0.0293,35.22,-6.47,-30.70,-92.71,0.85,-0.60
16.713982,0.1562,-1.3735,0.0210,31.92,-7.26,-28.56,-92.04,0.24,-0.44
16.744765,0.2861,-1.4556,0.0259,27.59,-5.37,-11.60,-91.46,-0.16,-0.31
16.744765,0.1138,-1.3545,-0.0078,27.16,-5.92,0.98,-90.91,-0.23,-0.20
16.804985,0.0059,-1.2524,0.0273,24.17,-7.39,1.04,-90.40,-0.20,-0.07
16.804985,0.0649,-1.2275,-0.0039,26.31,-6.23,4.88,-89.90,-0.15,0.07
16.834002,2.0591,-3.5869,0.4419,36.93,12.08,29.91,-89.35,0.03,0.16
16.834002,-1.5146,-1.0596,-0.3354,11.60,-49.26,91.37,-88.79,2.16,0.10
16.864785,-0.4893,-0.8174,0.3179,17.27,-13.98,43.82,-88.49,3.34,1.24
16.864785,-0.5957,-0.7554,0.1538,8.79,-3.72,-1.95,-88.19,3.71,1.29
16.924808,-0.0161,-1.0444,0.1494,12.57,-3.05,0.18,-87.99,3.64,1.39
16.924808,-0.1826,-0.9575,0.1963,5.00,0.55,-7.51,-87.82,3.58,1.43
16.954109,-0.1470,-0.9771,0.1113,2.99,3.36,-15.38,-87.75,3.34,1.34
16.954109,-0.0859,-0.9341,0.1943,-2.32,1.16,-17.58,-87.74,3.02,1.28
16.988128,-0.0518,-0.9629,0.1558,-7.75,3.85,-20.32,-87.85,2.64,1.21
16.988128,-0.0186,-0.9917,0.0879,-10.25,4.94,-20.39,-88.04,2.24,1.09
17.044780,-0.0161,-1.0200,0.0127,-9.83,4.88,-20.08,-88.25,1.84,0.97
17.044780,0.2383,-1.0996,-0.1909,-2.81,1.28,-1.22,-88.39,1.61,0.89
17.074065,0.0718,-1.0293,-0.0303,7.26,0.43,0.49,-88.31,1.61,0.88
17.074065,-0.0225,-0.9834,0.1201,8.12,0.85,2.87,-88.14,1.66,0.88
17.104844,-0.0684,-0.9473,0.2046,0.06,2.81,-0.24,-88.06,1.69,0.83
17.104844,-0.0527,-0.9741,0.1255,-5.55,0.79,-1.65,-88.13,1.67,0.80
17.164803,-0.0039,-1.0161,0.0264,-6.16,0.24,-2.20,-88.26,1.63,0.79
17.164803,0.0039,-1.0225,-0.0278,-1.28,0.00,-0.61,-88.33,1.61,0.79
17.194061,-0.0044,-1.0103,0.0112,2.75,-0.06,0.37,-88.30,1.61,0.79
17.194061,-0.0293,-0.9775,0.1099,0.98,0.06,0.37,-88.26,1.63,0.79
17.254883,-0.0327,-0.9873,0.0835,-2.08,0.18,-0.37,-88.27,1.63,0.79
17.254883,-0.0181,-1.0093,0.0249,-0.49,-0.18,-0.49,-88.30,1.61,0.79
17.284223,-0.0215,-1.0015,0.0483,0.61,-1.28,-0.92,-88.30,1.60,0.80
17.284223,-0.0186,-0.9980,0.0586,0.92,-1.28,-0.85,-88.28,1.59,0.83
17.314785,-0.0059,-0.9917,0.0781,0.67,-0.24,-0.61,-88.26,1.58,0.84
17.314785,-0.0273,-0.9995,0.0527,0.00,0.18,-0.92,-88.25,1.56,0.84
17.374873,-0.0234,-1.0078,0.0244,1.59,0.06,-1.34,-88.24,1.54,0.83
17.374873,-0.0186,-1.0107,0.0215,3.23,-0.06,-1.59,-88.19,1.52,0.83
17.404098,0.0078,-1.0151,0.0220,6.10,-0.49,-0.79,-88.09,1.49,0.84
17.404098,0.0039,-0.9844,0.1099,5.25,-1.10,0.55,-87.96,1.49,0.86
17.434793,-0.0508,-0.9902,0.0791,2.87,-0.43,-1.16,-87.89,1.49,0.87
17.434793,-0.0283,-1.0322,0.0020,5.13,3.54,-2.14,-87.81,1.46,0.86
17.494800,-0.2998,-1.0381,-0.0186,11.47,8.30,-15.20,-87.63,1.33,0.70
17.494800,-0.0449,-1.2085,0.1206,9.16,3.85,-32.90,-87.40,0.81,0.55
17.524123,0.3042,-1.5005,0.1616,-2.08,2.62,-16.78,-87.34,0.30,0.44
17.524123,0.2974,-1.6191,0.0913,-8.06,-1.16,6.16,-87.45,0.21,0.43
17.555055,0.1128,-1.5933,0.0557,-9.09,-0.49,20.20,-87.63,0.52,0.47
17.555055,0.0386,-1.5400,0.1343,-14.71,-0.67,25.02,-87.86,0.97,0.52
17.614835,-0.0059,-1.4985,0.1089,-22.46,0.79,27.89,-88.24,1.51,0.55
17.614835,-0.0171,-1.4561,0.1045,-28.56,0.92,28.20,-88.75,2.08,0.56
17.644048,-0.0396,-1.4087,0.0923,-36.56,0.61,30.21,-89.41,2.67,0.57
17.644048,-0.1592,-1.3398,-0.0010,-40.16,1.04,26.98,-90.19,3.25,0.57
17.675007,-0.2739,-1.2905,-0.1104,-36.50,4.09,16.36,-90.97,3.69,0.53
17.675007,-0.2314,-1.3101,-0.1406,-23.93,9.58,2.08,-91.58,3.87,0.39
17.734814,-0.0557,-1.3110,0.0327,-18.86,16.72,-2.14,-91.99,3.85,0.12
17.734814,-0.0220,-1.2705,0.0889,-23.56,14.04,1.34,-92.43,3.84,-0.20
17.764036,-0.0957,-1.1973,0.0820,-30.58,10.93,3.36,-92.99,3.89,-0.43
17.764036,-0.3486,-1.1050,-0.1963,-18.80,17.94,-8.97,-93.54,3.86,-0.71
17.794795,-0.0195,-1.1631,0.0210,6.71,25.51,-29.85,-93.64,3.41,-1.16
17.794795,0.4390,-1.0239,0.7236,-30.88,11.23,0.24,-93.81,3.05,-1.53
17.854800,-0.0566,-0.9644,0.2681,-70.19,-0.92,19.84,-94.93,3.35,-1.64
17.854800,-0.3589,-0.8823,-0.0322,-68.85,-7.08,0.49,-96.35,3.58,-1.54
17.884304,-0.0977,-0.9028,-0.0732,-57.50,-4.70,-11.66,-97.59,3.43,-1.41
17.884304,0.2534,-1.0083,-0.0566,-46.33,-4.46,0.85,-98.61,3.30,-1.31
17.914759,0.2856,-0.9751,-0.0542,-35.52,0.24,31.07,-99.43,3.64,-1.30
17.914759,-0.0884,-0.7788,-0.1240,-19.29,4.21,40.41,-99.98,4.39,-1.47
17.975269,-0.2104,-0.6338,-0.0225,-13.49,4.88,29.60,-100.29,5.08,-1.66
17.975269,-0.0479,-0.6191,0.1074,-18.07,3.48,23.13,-100.60,5.56,-1.83
18.008899,-0.0337,-0.5820,0.0557,-29.48,3.36,27.22,-101.10,6.06,-1.98
18.008899,-0.2051,-0.5449,-0.1680,-28.32,1.89,20.57,-101.71,6.54,-2.12
18.034817,-0.1978,-0.5278,-0.1426,-21.36,1.40,7.87,-102.21,6.81,-2.20
18.034817,-0.2471,-0.5142,-0.1729,-17.76,1.59,-5.37,-102.60,6.83,-2.24
18.094763,-0.1104,-0.5820,-0.2476,-6.65,3.78,-19.78,-102.85,6.55,-2.24
18.094763,0.2017,-0.5894,0.0542,-14.28,-0.92,-8.48,-102.99,6.23,-2.19
18.126818,0.1323,-0.6519,-0.1885,-23.25,2.69,11.23,-103.42,6.29,-2.22
18.126818,-0.1499,-0.5889,-0.3135,-16.54,4.82,12.27,-103.83,6.54,-2.35
18.156802,-0.1499,-0.5728,-0.3403,-11.78,5.13,7.14,-104.11,6.70,-2.49
18.156802,-0.0967,-0.6118,-0.3872,-8.30,4.88,5.80,-104.33,6.80,-2.62
18.214818,-0.0591,-0.6343,-0.3989,-1.95,3.48,10.01,-104.44,6.93,-2.74
18.214818,-0.2109,-0.5874,-0.4043,3.72,1.71,9.34,-104.43,7.14,-2.84
18.244065,-0.2231,-0.5654,-0.3110,7.39,-0.06,1.22,-104.30,7.23,-2.88
18.244065,-0.1357,-0.6021,-0.2324,7.20,0.18,-3.11,-104.16,7.21,-2.87
18.274839,-0.1343,-0.6284,-0.2627,8.06,-0.12,-3.17,-104.01,7.15,-2.86
18.274839,-0.1357,-0.6338,-0.2593,13.24,0.85,-4.46,-103.79,7.08,-2.85
18.334730,-0.1201,-0.6128,-0.1841,14.28,1.16,-6.84,-103.50,6.96,-2.85
18.334730,-0.0884,-0.6138,-0.1924,14.16,0.92,-8.36,-103.22,6.81,-2.83
18.364103,-0.0488,-0.6172,-0.1606,16.78,1.83,-8.54,-102.90,6.64,-2.82
18.364103,-0.0068,-0.6396,-0.1729,18.86,3.78,-5.62,-102.56,6.48,-2.85
18.394836,-0.0400,-0.6465,-0.1958,26.86,8.85,-1.59,-102.11,6.40,-2.97
18.394836,-0.1689,-0.6104,-0.1294,31.43,8.73,-4.33,-101.52,6.33,-3.14
18.454887,-0.2666,-0.6167,0.0098,25.63,4.82,-16.30,-100.95,6.11,-3.25
18.454887,-0.1802,-0.7485,0.1191,13.00,2.99,-32.65,-100.57,5.60,-3.23
18.484320,0.1489,-0.9307,0.1279,2.50,2.87,-30.52,-100.42,4.93,-3.19
18.484320,0.1543,-0.9619,0.0176,-8.97,0.61,-15.69,-100.50,4.49,-3.16
18.516605,0.0347,-0.9746,-0.2119,-5.74,2.56,-10.56,-100.68,4.25,-3.14
18.516605,0.0571,-0.9912,-0.2808,13.67,6.84,-6.84,-100.59,4.05,-3.21
18.574889,0.0288,-0.9209,-0.1284,21.06,7.26,0.55,-100.22,3.98,-3.35
18.574889,-0.1821,-0.7944,0.0142,12.82,1.46,-1.83,-99.86,3.98,-3.44
18.604142,-0.2202,-0.7778,-0.0747,1.28,-3.72,-14.53,-99.74,3.82,-3.39
18.604142,-0.0200,-0.8706,-0.1631,1.59,-6.23,-22.03,-99.72,3.45,-3.22
18.664848,0.1045,-0.9507,-0.3062,13.12,-4.09,-12.45,-99.57,3.12,-3.07
18.664848,-0.0073,-0.8945,-0.2979,29.17,-2.69,-6.59,-99.13,2.96,-2.98
18.694072,-0.1094,-0.8247,-0.1504,34.61,-3.11,-8.06,-98.46,2.83,-2.90
18.694072,-0.1460,-0.8330,-0.1123,32.84,-7.81,-14.10,-97.78,2.63,-2.78
18.724917,-0.1709,-0.8672,-0.0376,26.55,-13.67,-22.34,-97.17,2.29,-2.52
18.724917,-0.1948,-0.9004,0.0630,16.60,-18.49,-33.51,-96.73,1.76,-2.14
18.785119,0.0576,-1.0889,0.0015,7.14,-15.93,-38.76,-96.51,1.04,-1.72
18.785119,0.3252,-1.3110,-0.1616,16.11,-7.02,-18.19,-96.30,0.48,-1.43
18.814062,0.1362,-1.3032,-0.2334,32.47,0.37,3.91,-95.80,0.40,-1.38
18.814062,-0.1606,-1.1807,-0.1401,46.94,2.20,1.04,-94.98,0.49,-1.42
18.844833,-0.2378,-1.1196,0.1426,40.59,0.00,-17.09,-94.06,0.33,-1.44
18.844833,0.1431,-1.3018,0.0977,24.60,-6.35,-21.91,-93.44,-0.11,-1.36
18.904940,0.3076,-1.3799,-0.1377,29.42,-4.21,-1.77,-92.94,-0.35,-1.24
18.904940,0.0537,-1.2344,-0.1245,45.78,-2.75,7.87,-92.16,-0.25,-1.17
18.934044,-0.1997,-1.0327,0.1318,40.04,-5.31,-1.46,-91.26,-0.15,-1.09
18.934044,-0.2178,-1.0439,0.1270,25.27,-12.82,-22.89,-90.64,-0.41,-0.91
18.964850,-0.0503,-1.1128,0.2510,6.96,-13.24,-35.46,-90.31,-1.02,-0.64
18.964850,0.1040,-1.2744,-0.0181,2.01,-10.38,-35.64,-90.28,-1.75,-0.42
19.024948,0.2080,-1.3135,-0.0361,8.42,-9.16,-28.87,-90.17,-2.40,-0.24
19.024948,0.2471,-1.2700,0.0259,5.80,-8.91,-15.69,-90.02,-2.84,-0.07
19.054418,1.2207,-3.9019,-0.0591,7.20,-6.53,-4.82,-89.92,-3.04,0.07
19.054418,0.1074,-1.5317,-1.9048,47.61,-40.89,223.14,-89.54,-0.29,-0.15
19.085242,-1.5874,-0.7207,0.8218,37.84,-9.46,0.06,-88.28,1.70,0.61
19.085242,-0.1606,-0.8955,0.5073,-4.64,-34.36,23.13,-88.02,1.91,1.13
19.144873,-0.4897,-0.8418,0.0684,-15.93,-17.21,-7.39,-88.31,2.05,1.75
19.144873,0.0718,-1.1309,-0.1211,13.85,-2.75,9.16,-88.26,1.98,1.83
19.174109,-0.1973,-0.9175,0.3223,7.20,-5.43,1.71,-88.03,2.09,2.03
19.174109,-0.0142,-0.9912,0.1411,-2.75,-0.98,-5.00,-88.00,2.01,2.05
19.204897,0.0093,-1.0068,0.0176,-1.22,1.04,-1.53,-88.05,1.95,2.07
19.204897,0.0376,-1.0142,0.0254,3.42,1.28,-0.92,-88.02,1.92,2.04
19.264875,-0.0352,-1.0132,0.0146,5.19,1.22,-2.14,-87.93,1.91,2.01
19.264875,0.0049,-0.9805,0.1138,3.85,1.53,-0.55,-87.84,1.88,1.98
19.294121,0.0005,-0.9800,0.1255,1.04,1.59,0.12,-87.79,1.88,1.94
19.294121,-0.0308,-0.9897,0.1040,-0.18,0.55,0.55,-87.78,1.90,1.92
19.324854,-0.0410,-0.9854,0.1079,-1.77,0.49,0.12,-87.80,1.91,1.91
19.324854,-0.0068,-0.9907,0.1108,-3.17,0.43,-0.37,-87.85,1.91,1.91
19.385128,-0.0342,-0.9814,0.1030,-6.35,0.79,0.43,-87.95,1.92,1.90
19.385128,-0.0171,-1.0166,-0.0044,-5.25,0.98,0.24,-88.07,1.92,1.87
19.414070,-0.0415,-1.0142,-0.0195,-1.34,0.12,0.18,-88.13,1.94,1.86
19.414070,-0.0449,-1.0034,0.0205,1.40,0.00,-0.98,-88.12,1.93,1.86
19.444894,-0.0181,-0.9990,0.0591,2.26,-0.31,-1.59,-88.08,1.91,1.86
19.444894,-0.0029,-0.9893,0.0889,1.28,-1.04,-0.61,-88.04,1.88,1.87
19.504963,-0.0327,-0.9858,0.1021,-1.04,-1.16,-0.18,-88.04,1.88,1.90
19.504963,-0.0273,-0.9976,0.0693,-1.77,-0.49,-0.49,-88.07,1.87,1.92
19.534121,-0.0229,-1.0137,0.0156,0.92,-0.12,-0.98,-88.08,1.86,1.92
19.534121,-0.0142,-0.9897,0.0977,1.22,-0.61,-0.18,-88.05,1.85,1.93
19.564901,-0.0273,-0.9907,0.0854,-0.24,-1.77,0.00,-88.04,1.85,1.96
19.564901,-0.0186,-0.9888,0.1030,-1.89,-2.50,0.00,-88.06,1.85,2.00
19.624941,-0.0317,-0.9971,0.0776,-4.46,-1.77,-0.31,-88.12,1.85,2.05
19.624941,0.0029,-1.0615,-0.0981,1.22,1.16,0.24,-88.18,1.85,2.06
19.654733,-0.0840,-1.0371,-0.1001,20.20,4.88,-2.32,-87.94,1.85,1.98
19.654733,0.0327,-1.0420,0.0981,16.60,3.91,-1.77,-87.57,1.81,1.90
19.685122,-0.1211,-1.1265,-0.0332,26.67,3.72,-4.03,-87.14,1.78,1.81
19.685122,0.0205,-1.2329,0.1929,11.41,4.21,-13.85,-86.73,1.57,1.68
19.744867,0.0854,-1.4355,0.1196,1.40,0.06,-6.65,-86.62,1.37,1.65
19.744867,0.0259,-1.5562,0.0439,-5.43,-5.00,-4.64,-86.67,1.27,1.68
19.774075,0.1416,-1.6470,0.1299,-11.35,-5.07,2.14,-86.84,1.23,1.80
19.774075,0.1538,-1.6797,0.0366,-14.47,-2.50,14.22,-87.11,1.40,1.88
19.805000,0.0757,-1.6284,0.0420,-13.85,-2.08,22.89,-87.39,1.78,1.96
19.805000,-0.0029,-1.5195,0.0444,-14.04,0.79,29.42,-87.67,2.31,2.02
19.864876,-0.1680,-1.3896,-0.0024,-12.08,5.43,26.61,-87.93,2.89,1.98
19.864876,-0.1528,-1.2925,0.1963,-18.37,7.32,18.86,-88.20,3.35,1.87
19.894178,-0.0688,-1.2710,0.2168,-38.02,5.43,18.62,-88.79,3.72,1.76
19.894178,-0.1753,-1.2480,0.0571,-51.88,-2.99,15.93,-89.71,4.08,1.75
19.924963,-0.1802,-1.2412,-0.0923,-51.03,-8.18,8.12,-90.76,4.32,1.88
19.924963,-0.1621,-1.2495,-0.1792,-38.51,-5.55,0.61,-91.66,4.40,2.03
19.985142,-0.0410,-1.2441,-0.1230,-20.51,-4.39,-0.79,-92.22,4.38,2.12
19.985142,0.0146,-1.1982,0.0264,-11.96,-2.69,6.04,-92.52,4.44,2.19
20.014012,-0.1475,-1.1094,0.1113,-13.61,-4.88,6.10,-92.76,4.60,2.26
20.014012,-0.1714,-1.0786,0.1890,-19.04,-9.22,-5.19,-93.07,4.61,2.40
20.075107,-0.0024,-1.1226,0.2505,-29.60,-10.93,-8.79,-93.55,4.45,2.61
20.075107,0.0396,-1.1455,0.1553,-33.57,-13.18,-2.20,-94.19,4.36,2.86
20.105046,0.0391,-1.1289,0.0405,-25.57,-11.90,3.42,-94.77,4.38,3.11
20.105046,0.1313,-1.0864,0.1865,-12.63,-8.79,9.83,-95.12,4.53,3.32
20.138415,0.1914,-0.9463,0.4399,-21.00,-4.21,27.40,-95.41,4.91,3.42
20.138415,-0.1636,-0.7803,0.2710,-36.44,-5.37,33.45,-96.00,5.58,3.46
20.194943,-0.3799,-0.6606,0.0039,-36.19,-8.91,14.83,-96.75,6.08,3.57
20.194943,-0.1655,-0.6895,-0.0776,-24.90,-8.91,1.16,-97.35,6.22,3.74
20.224134,0.0488,-0.6895,0.0381,-15.56,-8.36,7.63,-97.70,6.30,3.91
20.224134,-0.0361,-0.6060,0.1304,-22.83,-11.23,18.19,-98.05,6.60,4.06
20.255158,-0.1777,-0.5542,-0.0195,-31.31,-14.22,14.89,-98.59,6.99,4.28
20.255158,-0.0176,-0.6230,-0.0840,-24.35,-9.40,9.95,-99.13,7.25,4.51
20.314911,0.1201,-0.6621,-0.1143,-15.50,-0.49,20.14,-99.51,7.55,4.55
20.314911,0.0830,-0.5981,-0.0884,-11.72,1.83,33.69,-99.78,8.10,4.45
20.344026,-0.0645,-0.4834,-0.1279,-10.01,7.93,37.60,-100.03,8.81,4.25
20.344026,-0.1045,-0.3652,-0.1719,-9.22,13.06,37.54,-100.25,9.52,3.91
20.375026,-0.2417,-0.2466,-0.2427,-12.57,9.70,32.41,-100.52,10.18,3.56
20.375026,-0.3892,-0.1699,-0.3252,-17.82,1.46,19.78,-100.86,10.70,3.36
20.434911,-0.4238,-0.1792,-0.3779,-18.55,-6.90,1.22,-101.22,10.90,3.39
20.434911,-0.3198,-0.2695,-0.3491,-16.97,-7.87,-14.10,-101.55,10.79,3.59
20.463939,-0.1509,-0.3955,-0.3857,-7.93,-4.21,-16.78,-101.77,10.49,3.77
20.463939,-0.1792,-0.4346,-0.3325,0.24,0.00,-14.95,-101.82,10.20,3.86
20.495334,-0.3140,-0.4419,-0.3071,6.84,-0.55,-23.86,-101.72,9.82,3.92
20.495334,-0.2485,-0.4673,-0.1655,2.75,-5.31,-35.40,-101.58,9.24,4.09
20.555242,-0.0332,-0.5991,-0.1636,-3.05,-3.91,-36.32,-101.57,8.54,4.33
20.555242,0.0674,-0.7114,-0.2437,5.86,3.36,-26.06,-101.54,7.92,4.44
20.584302,0.0151,-0.6938,-0.1211,17.33,11.90,-15.50,-101.30,7.50,4.36
20.584302,-0.0166,-0.6758,0.0156,21.79,18.68,-9.58,-100.93,7.21,4.08
20.614881,-0.0933,-0.6479,0.1089,20.45,24.17,-5.98,-100.54,7.00,3.67
20.614881,-0.3047,-0.5659,0.0767,3.91,18.55,-13.12,-100.32,6.77,3.25
20.674993,-0.1812,-0.6050,-0.0532,-11.35,8.85,-28.38,-100.45,6.30,3.07
20.674993,0.1616,-0.7598,-0.2544,-6.65,9.46,-27.04,-100.67,5.70,2.98
20.705244,0.2134,-0.8452,-0.2144,10.38,10.86,-9.77,-100.63,5.31,2.85
20.705244,0.0244,-0.7837,-0.0615,21.12,18.31,2.75,-100.32,5.23,2.57
20.734910,-0.2363,-0.6826,-0.0400,25.15,20.75,-3.36,-99.87,5.19,2.16
20.734910,-0.2676,-0.6792,-0.0630,28.69,20.69,-20.63,-99.36,4.89,1.77
20.794913,-0.1895,-0.7090,0.0640,27.28,11.90,-35.77,-98.79,4.27,1.52
20.794913,0.0068,-0.8008,0.1694,11.29,6.23,-41.63,-98.42,3.46,1.46
20.825463,0.1055,-0.9653,-0.0557,8.30,8.12,-38.70,-98.27,2.65,1.43
20.825463,0.1431,-1.0718,-0.1006,21.06,13.61,-32.10,-97.97,1.92,1.29
20.855346,0.2368,-1.1670,0.0449,24.78,16.05,-21.91,-97.49,1.35,1.04
20.855346,0.1499,-1.1714,0.0884,21.36,20.63,-7.57,-97.03,1.04,0.70
20.914910,0.0078,-1.1387,-0.0063,15.32,16.54,-5.98,-96.65,0.88,0.32
20.914910,-0.0830,-1.0923,-0.0054,3.54,7.87,-8.18,-96.46,0.74,0.10
20.944145,-0.0215,-1.2026,-0.3169,2.93,5.92,-12.51,-96.44,0.51,0.00
20.944145,0.0845,-1.2700,-0.4316,24.17,5.31,-6.23,-96.16,0.31,-0.10
20.975097,-0.0674,-1.1738,-0.2158,32.17,-1.89,-3.30,-95.55,0.23,-0.14
20.975097,-0.1431,-1.1978,-0.0591,21.91,-4.39,-11.47,-95.00,0.10,-0.04
21.034935,0.0347,-1.3945,-0.2544,26.98,-4.39,-12.57,-94.55,-0.16,0.05
21.034935,0.1743,-1.4785,-0.2163,39.73,-6.59,-1.95,-93.87,-0.30,0.16
21.064515,0.0908,-1.3872,0.0488,41.32,-8.54,8.54,-93.03,-0.21,0.32
21.064515,-0.1216,-1.3013,0.1646,26.55,-8.06,4.64,-92.35,-0.04,0.48
21.094962,-0.0923,-1.3408,-0.0400,17.40,-8.54,-3.97,-91.94,-0.04,0.64
21.094962,0.0684,-1.3901,-0.0952,24.54,-9.34,-6.41,-91.53,-0.17,0.83
21.155687,0.0869,-1.2983,0.0854,25.33,-7.32,1.34,-91.01,-0.20,0.99
21.155687,0.0308,-1.2705,0.0610,21.30,-7.63,0.00,-90.55,-0.18,1.14
21.184435,0.0684,-1.2349,0.0825,20.45,-6.77,1.40,-90.13,-0.17,1.30
21.184435,-0.0693,-1.0825,0.1968,10.01,-5.62,-4.94,-89.81,-0.19,1.41
21.214926,2.3447,-3.2207,0.3184,-0.79,28.56,11.35,-89.81,-0.36,1.38
21.214926,-1.4761,-1.1655,-0.8506,24.78,-55.48,95.03,-89.58,1.58,1.40
21.275001,-0.5591,-0.6455,0.3760,18.55,-8.85,26.98,-89.13,2.59,2.30
21.275001,-0.3169,-0.9160,0.0986,-2.50,-15.32,-9.16,-89.01,2.69,2.48
21.305725,0.1021,-1.1440,-0.0117,18.68,-0.73,5.68,-88.85,2.63,2.65
21.305725,-0.2915,-0.9121,0.2612,17.09,6.77,-0.31,-88.45,2.73,2.58
21.334914,-0.2456,-0.9131,0.2563,8.79,9.58,-12.70,-88.20,2.59,2.39
21.334914,-0.0776,-0.9121,0.2842,-2.81,6.65,-18.07,-88.15,2.29,2.21
21.394873,-0.0298,-0.9849,0.1611,-12.57,6.84,-18.55,-88.32,1.93,2.06
21.394873,0.0581,-1.0820,-0.0371,-9.83,5.13,-16.66,-88.57,1.58,1.92
21.424188,0.1357,-1.0664,-0.1689,-3.91,0.79,-3.42,-88.71,1.41,1.84
21.424188,0.1362,-1.0664,-0.1401,7.39,1.65,3.66,-88.67,1.42,1.82
21.485195,-0.0176,-1.0010,0.0571,13.61,3.78,6.84,-88.43,1.55,1.78
21.485195,-0.1636,-0.9160,0.2686,4.70,4.33,0.98,-88.23,1.65,1.70
21.514119,-0.1167,-0.9590,0.1523,-5.31,0.55,-2.44,-88.26,1.63,1.65
21.514119,-0.0210,-0.9985,0.0562,-6.29,0.00,-4.46,-88.39,1.55,1.64
21.544963,0.0435,-1.0425,-0.0659,-1.34,-1.40,-1.46,-88.47,1.49,1.65
21.544963,0.0273,-1.0273,-0.0361,5.07,-2.81,2.50,-88.43,1.51,1.70
21.606035,-0.0366,-0.9746,0.1250,6.10,-2.87,3.05,-88.30,1.57,1.76
21.606035,-0.0933,-0.9419,0.2183,-2.20,-1.59,-0.43,-88.25,1.60,1.81
21.634131,-0.0273,-0.9902,0.0942,-7.93,-0.98,-3.36,-88.37,1.55,1.83
21.634131,0.0098,-1.0156,-0.0122,-6.71,-1.46,-3.05,-88.52,1.48,1.86
21.664927,0.0459,-1.0381,-0.0610,-0.92,-0.73,-0.85,-88.59,1.44,1.87
21.664927,0.0132,-1.0254,-0.0381,5.19,-2.01,2.14,-88.54,1.46,1.91
21.725013,-0.0488,-0.9946,0.0645,7.63,-2.01,2.44,-88.41,1.52,1.95
21.725013,-0.0884,-0.9575,0.1831,2.81,-2.32,-0.12,-88.29,1.54,1.99
21.754167,-0.0640,-0.9717,0.1377,-3.30,-3.11,-3.23,-88.30,1.50,2.05
21.754167,-0.0146,-0.9956,0.0708,-4.58,-4.27,-4.03,-88.39,1.42,2.12
21.786468,0.0171,-1.0107,0.0190,-4.27,-3.30,-2.87,-88.47,1.35,2.19
21.786468,0.0352,-1.0322,-0.0576,1.71,-3.11,0.00,-88.49,1.32,2.26
21.845202,0.0137,-1.0317,-0.0605,8.18,-2.69,0.98,-88.39,1.33,2.31
21.845202,-0.0093,-1.0278,-0.0234,12.82,-1.46,0.98,-88.17,1.36,2.36
21.874137,-0.0522,-0.9849,0.0737,12.21,3.72,0.24,-87.91,1.38,2.35
21.874137,-0.2114,-1.0449,0.0068,14.34,2.20,-10.38,-87.64,1.30,2.25
21.906114,-0.2007,-1.0864,0.0654,10.56,-9.34,-35.10,-87.39,0.82,2.31
21.906114,0.3125,-1.3770,0.2227,0.00,0.00,-24.72,-87.28,0.16,2.35
21.964997,0.2251,-1.5435,0.1309,-11.60,-3.97,-8.85,-87.41,-0.14,2.36
21.964997,0.2783,-1.6646,0.0835,-15.62,-5.19,5.49,-87.69,-0.18,2.46
21.994226,0.2168,-1.6899,0.0259,-17.15,-4.70,22.52,-88.03,0.11,2.57
21.994226,0.0576,-1.6172,0.0439,-18.49,-5.68,32.35,-88.38,0.68,2.71
22.025118,-0.0215,-1.5513,0.0693,-24.35,-5.74,33.57,-88.80,1.33,2.86
22.025118,-0.0176,-1.5288,0.0630,-28.93,-4.52,33.63,-89.34,2.00,2.99
22.085220,-0.0439,-1.4927,0.0376,-32.41,-1.22,34.73,-89.96,2.69,3.07
22.085220,-0.2104,-1.4106,-0.0796,-30.58,2.44,30.09,-90.60,3.36,3.07
22.114131,-0.2749,-1.3667,-0.1138,-19.84,6.71,12.82,-91.11,3.79,2.98
22.114131,-0.0908,-1.3306,0.0708,-19.71,6.04,4.94,-91.48,3.93,2.83
22.144939,0.0073,-1.3140,0.0483,-24.11,5.37,9.89,-91.95,4.08,2.73
22.144939,-0.1104,-1.1821,0.0190,-20.75,6.90,12.94,-92.41,4.33,2.60
22.206288,-0.1797,-1.0342,0.1714,-26.92,2.32,5.86,-92.86,4.52,2.49
22.206288,-0.0996,-1.0020,0.2285,-48.46,-6.90,1.95,-93.62,4.60,2.55
22.234159,-0.1309,-1.0020,0.1021,-62.87,-15.01,-0.18,-94.75,4.63,2.77
22.234159,-0.1250,-1.0166,-0.1196,-57.13,-16.78,-5.62,-95.96,4.60,3.11
22.264958,-0.0874,-1.0229,-0.2061,-37.35,-11.60,-10.07,-96.88,4.46,3.40
22.264958,0.1255,-1.0400,-0.0791,-22.77,-12.21,-3.85,-97.44,4.32,3.67
22.325046,0.1294,-1.0596,-0.2314,-2.14,-2.62,14.71,-97.70,4.46,3.80
22.325046,-0.1055,-0.9595,-0.2998,33.63,3.60,17.76,-97.37,4.81,3.74
22.354185,-0.0361,-0.7910,0.1221,51.76,6.96,16.17,-96.44,5.13,3.59
22.354185,-0.0688,-0.6372,0.4419,29.79,7.69,22.83,-95.61,5.51,3.41
22.385128,-0.3643,-0.5601,0.2505,6.71,5.49,14.71,-95.30,5.92,3.25
22.385128,-0.3613,-0.5205,0.1392,-7.63,-5.86,-4.88,-95.31,5.99,3.23
22.444970,-0.1152,-0.5938,0.1567,-31.07,-21.06,-11.96,-95.69,5.82,3.54
22.444970,0.0879,-0.7588,-0.0190,-30.88,-19.23,-3.48,-96.31,5.69,3.98
22.474108,0.1304,-0.7534,0.0747,-23.68,-13.31,12.39,-96.80,5.81,4.30
22.474108,0.0024,-0.6714,0.1050,-23.80,-4.03,24.05,-97.26,6.22,4.42
22.508308,-0.1968,-0.5376,0.0464,-27.16,0.49,22.64,-97.76,6.71,4.39
22.508308,-0.2905,-0.4170,-0.1011,-32.90,-2.08,13.98,-98.37,7.08,4.36
22.565122,-0.3755,-0.3369,-0.2759,-33.45,-8.48,-2.01,-99.03,7.22,4.44
22.565122,-0.2681,-0.3750,-0.3101,-32.47,-15.44,-17.64,-99.66,7.03,4.72
22.594176,-0.1191,-0.4863,-0.3027,-26.98,-17.52,-23.01,-100.21,6.67,5.13
22.594176,-0.0088,-0.6064,-0.2715,-19.29,-13.06,-20.94,-100.64,6.28,5.51
22.624967,0.0825,-0.7256,-0.2295,-3.66,-2.26,-15.56,-100.84,5.94,5.72
22.624967,0.2148,-0.7715,-0.0615,4.64,9.64,-1.46,-100.81,5.76,5.66
22.685229,0.1211,-0.7241,-0.0469,0.43,17.64,14.47,-100.77,5.87,5.36
22.685229,-0.0537,-0.6475,-0.2261,0.06,21.42,17.88,-100.82,6.15,4.91
22.714132,-0.1167,-0.6055,-0.3257,4.27,20.45,14.16,-100.82,6.40,4.43
22.714132,-0.1577,-0.5767,-0.2993,4.82,16.11,8.61,-100.76,6.57,4.03
22.744953,-0.2153,-0.5605,-0.2710,1.22,7.69,0.85,-100.72,6.63,3.76
22.744953,-0.2061,-0.5903,-0.2036,-1.89,1.34,-9.70,-100.73,6.53,3.70
22.806603,-0.2275,-0.6133,-0.1396,-6.29,-1.28,-20.51,-100.81,6.23,3.76
22.806603,-0.0654,-0.7056,-0.0747,-8.73,-1.71,-27.95,-100.95,5.73,3.87
22.834196,0.0747,-0.7646,0.0142,-11.35,4.64,-23.01,-101.15,5.22,3.94
22.834196,0.0776,-0.7944,-0.0430,-7.20,12.70,-16.42,-101.35,4.82,3.83
22.894878,0.0513,-0.7725,-0.0923,-3.36,19.65,-13.24,-101.47,4.48,3.54
22.894878,0.1270,-0.7666,-0.1362,0.73,22.95,-7.51,-101.51,4.19,3.16
22.924160,0.1392,-0.7461,-0.1035,4.70,25.21,0.92,-101.48,4.05,2.69
22.924160,-0.0225,-0.6816,-0.0830,5.07,26.06,1.59,-101.41,4.02,2.17
22.956782,-0.0679,-0.6772,-0.2026,4.09,24.78,-5.07,-101.34,3.89,1.68
22.956782,0.0293,-0.7563,-0.3950,8.97,20.32,-8.85,-101.24,3.66,1.24
23.015162,0.1309,-0.7734,-0.3672,18.13,12.27,-3.05,-100.98,3.48,0.95
23.015162,0.0483,-0.7310,-0.1499,16.17,4.39,0.61,-100.61,3.45,0.80
23.044268,-0.0752,-0.7510,-0.1162,4.39,0.00,-2.75,-100.43,3.44,0.76
23.044268,-0.0815,-0.7832,-0.2681,4.15,-1.89,-11.35,-100.35,3.30,0.79
23.075479,-0.1138,-0.7329,-0.0376,-4.94,-15.44,-19.96,-100.31,3.02,1.02
23.075479,-0.1016,-0.8086,-0.0093,-23.62,-17.09,-27.77,-100.61,2.59,1.43
23.134960,0.0737,-1.0020,-0.2915,-17.58,-14.53,-31.25,-101.05,2.04,1.85
23.134960,0.1528,-1.1167,-0.3447,2.08,-14.22,-17.09,-101.19,1.61,2.21
23.164201,0.0547,-1.1611,-0.3384,23.56,-5.86,-4.15,-100.93,1.46,2.45
23.164201,-0.0234,-1.1284,-0.2754,43.33,-4.21,3.17,-100.23,1.48,2.54
23.194972,-0.1621,-1.0073,-0.0112,52.06,-6.71,5.07,-99.24,1.59,2.63
23.194972,-0.4297,-0.8828,0.4292,34.61,-7.39,-10.68,-98.33,1.59,2.79
23.256855,-0.3013,-1.0015,0.2720,8.97,1.53,-30.21,-97.95,1.16,2.88
23.256855,0.0249,-1.2217,-0.1372,15.50,7.51,-32.23,-97.75,0.49,2.87
23.285087,0.1479,-1.2749,-0.1855,38.88,9.09,-15.50,-97.18,0.00,2.74
23.285087,-0.0459,-1.1763,0.0640,46.45,15.32,-6.29,-96.28,-0.20,2.52
23.314989,-0.1699,-1.1021,0.1582,41.69,19.47,-12.94,-95.38,-0.40,2.18
23.314989,-0.1138,-1.0923,0.1597,28.56,18.68,-20.20,-94.66,-0.76,1.81
23.375162,0.0146,-1.2046,-0.0005,17.46,13.55,-25.57,-94.22,-1.25,1.52
23.375162,0.1250,-1.3228,-0.1626,25.94,13.06,-21.42,-93.80,-1.73,1.28
23.403931,0.1665,-1.3472,-0.0771,34.48,16.11,-14.10,-93.16,-2.09,1.01
23.403931,0.0127,-1.3032,0.0205,36.25,16.05,-13.85,-92.41,-2.35,0.68
23.434883,0.0718,-1.3203,0.1572,24.66,15.20,-19.35,-91.77,-2.70,0.37
23.434883,0.1787,-1.4121,0.0928,13.49,16.17,-17.33,-91.38,-3.07,0.06
23.495039,0.2393,-1.4575,-0.1069,10.31,14.10,-7.81,-91.14,-3.32,-0.25
23.495039,0.2935,-1.4688,-0.1929,17.58,11.78,2.08,-90.85,-3.37,-0.51
23.524248,3.1260,-2.7075,0.3364,15.14,31.31,62.87,-90.44,-3.07,-0.75
23.524248,-2.1450,-0.8521,-0.6934,56.82,-22.58,116.27,-89.90,-0.11,-0.59
23.554982,0.9131,-1.1694,0.3467,37.90,-1.65,35.95,-88.87,0.65,-0.38
23.554982,-0.3877,-0.8838,0.2075,30.82,-6.35,39.31,-88.21,1.69,-0.09
23.614975,-0.4976,-0.8804,0.2749,15.38,-13.67,20.02,-87.70,2.32,0.00
23.614975,0.0239,-1.0356,0.1978,3.60,-9.64,4.58,-87.59,2.44,0.35
23.644231,-0.0952,-1.0063,0.0903,6.71,-5.31,1.40,-87.47,2.52,0.47
23.644231,-0.1221,-0.9404,0.2261,4.52,-1.83,5.31,-87.34,2.60,0.54
23.675049,-0.0679,-0.9771,0.1704,-2.56,0.12,2.38,-87.33,2.67,0.56
23.675049,-0.0859,-1.0039,0.0259,-2.01,-0.73,0.24,-87.39,2.70,0.57
23.734998,-0.0957,-1.0039,0.0171,0.12,-0.49,-2.08,-87.40,2.69,0.58
23.734998,-0.0239,-1.0117,0.0376,2.93,-0.61,-3.91,-87.36,2.61,0.58
23.764271,0.0083,-0.9761,0.1362,0.92,-0.12,-1.10,-87.31,2.57,0.59
23.764271,-0.0049,-0.9946,0.1035,-1.34,0.43,0.49,-87.32,2.57,0.59
23.794988,-0.0527,-0.9985,0.0723,-0.31,0.31,0.73,-87.34,2.59,0.58
23.794988,-0.0747,-1.0039,0.0532,1.65,0.18,-0.55,-87.32,2.59,0.58
23.854959,-0.0503,-0.9917,0.0952,2.44,-1.40,-1.95,-87.28,2.57,0.58
23.854959,-0.0400,-0.9717,0.1479,-1.34,-2.87,-1.04,-87.26,2.54,0.63
23.884509,-0.0229,-1.0024,0.0728,-3.23,-2.01,-1.40,-87.31,2.51,0.67
23.884509,-0.0273,-1.0176,-0.0024,0.49,-3.48,0.00,-87.34,2.50,0.73
23.914961,-0.0498,-1.0029,0.0479,3.30,-4.94,0.12,-87.29,2.50,0.81
23.914961,-0.0967,-0.9766,0.1035,1.22,-8.79,-0.61,-87.23,2.49,0.94
23.974983,-0.0591,-0.9956,0.0850,-0.85,-13.98,-0.55,-87.23,2.46,1.17
23.974983,-0.0518,-0.9868,0.1094,-1.71,-13.12,-0.61,-87.24,2.43,1.44
24.004167,-0.0532,-0.9883,0.1045,-2.20,-13.55,-0.49,-87.27,2.41,1.71
24.004167,-0.0596,-0.9854,0.1455,-3.30,-9.89,-0.37,-87.31,2.38,1.96
24.034975,-0.0796,-0.9702,0.1602,-5.25,-3.11,-1.83,-87.39,2.36,2.08
24.034975,-0.0449,-0.9761,0.1963,-8.73,4.03,-3.11,-87.53,2.31,2.06
24.095044,-0.0112,-1.0073,0.0415,-8.18,8.06,-4.52,-87.71,2.24,1.92
24.095044,0.0396,-1.0283,-0.0151,-5.49,6.10,-3.11,-87.86,2.16,1.77
24.124264,0.0176,-1.0029,0.0049,-2.44,2.93,-3.42,-87.93,2.11,1.68
24.124264,0.0146,-0.9966,0.0181,-2.38,-0.06,-0.43,-87.97,2.09,1.64
24.155015,0.0112,-0.9917,0.0674,-1.65,-0.49,0.18,-88.01,2.09,1.66
24.155015,0.0122,-1.0068,0.0352,-1.34,1.34,-0.12,-88.04,2.09,1.65
24.215034,-0.0474,-1.0210,-0.0093,0.67,2.87,-1.16,-88.05,2.08,1.61
24.215034,-0.0049,-0.9829,0.1094,6.59,3.97,-5.62,-87.96,2.01,1.52
24.244342,0.0254,-0.9868,0.1021,0.00,3.17,2.14,-87.90,2.00,1.41
24.244342,-0.0889,-0.9834,0.0874,-1.40,1.10,-0.43,-87.91,2.03,1.38
24.304909,0.0278,-1.0112,0.0503,-0.18,5.37,-1.77,-87.93,2.00,1.32
24.304909,-0.0132,-1.0005,0.0435,-0.12,2.87,0.31,-87.93,2.00,1.23
24.335263,-0.0151,-1.0073,0.0391,2.14,6.23,0.61,-87.92,2.02,1.16
24.335263,-0.0781,-1.0005,0.0269,5.92,12.33,-2.08,-87.84,2.02,0.95
24.363929,-0.0352,-0.9917,0.0649,5.07,3.85,-2.01,-87.72,1.98,0.76
24.363929,0.0010,-0.9858,0.1250,2.20,1.04,1.83,-87.64,1.99,0.74
