t,ax,ay,az,gx,gy,gz,wx,wy,wz
-0.000985,0.4326,0.0791,0.8813,1.46,1.22,-0.31,3.67,-25.66,-138.23
-0.000985,0.4526,0.0708,0.8794,1.16,0.85,-1.65,3.71,-25.64,-138.24
-0.000959,0.4355,0.0791,0.9019,6.04,1.34,-2.20,3.78,-25.61,-138.28
-0.000959,0.4253,0.0913,0.8965,10.99,1.34,-1.83,3.99,-25.58,-138.32
-0.000948,0.4287,0.0938,0.8794,11.41,0.85,-1.46,4.23,-25.55,-138.35
-0.000948,0.4326,0.0903,0.8853,12.63,0.67,-1.10,4.48,-25.54,-138.37
0.049911,0.4370,0.0957,0.8916,13.67,1.53,0.18,4.74,-25.51,-138.37
0.049911,0.4341,0.0991,0.9097,15.01,0.49,0.79,5.03,-25.49,-138.35
0.078924,0.4429,0.0928,0.9038,21.48,0.61,0.67,5.38,-25.48,-138.32
0.078924,0.4458,0.1050,0.8799,17.15,0.37,-0.12,5.77,-25.48,-138.31
0.108899,0.4390,0.1108,0.8818,15.75,-0.18,0.06,6.10,-25.47,-138.31
0.108899,0.4385,0.1240,0.8799,14.77,0.37,-0.43,6.41,-25.47,-138.30
0.168795,0.4385,0.1221,0.8887,8.79,0.12,-0.98,6.65,-25.46,-138.32
0.168795,0.4258,0.1260,0.8755,9.52,1.89,-3.66,6.83,-25.43,-138.35
0.199204,0.4355,0.1357,0.8760,4.03,1.53,-2.62,7.01,-25.39,-138.43
0.199204,0.4404,0.1304,0.8779,1.10,1.16,-1.65,7.08,-25.36,-138.46
0.228324,0.4424,0.1240,0.8960,-0.98,0.92,-2.44,7.09,-25.33,-138.50
0.228324,0.4424,0.1289,0.8936,0.24,0.98,-3.11,7.12,-25.31,-138.57
0.289484,0.4463,0.1211,0.8867,0.18,0.79,-2.69,7.16,-25.27,-138.62
0.289484,0.4375,0.1304,0.8857,-1.46,0.67,-3.30,7.16,-25.25,-138.68
0.318203,0.4321,0.1313,0.8838,-1.04,0.98,-4.27,7.17,-25.22,-138.75
0.318203,0.4307,0.1338,0.8887,-2.69,0.00,-3.85,7.17,-25.21,-138.84
0.348911,0.4272,0.1377,0.8872,-2.38,0.06,-3.30,7.16,-25.20,-138.92
0.348911,0.4224,0.1387,0.8901,-2.32,0.61,-1.77,7.12,-25.19,-138.97
0.409007,0.4219,0.1416,0.8848,-1.34,0.61,-1.16,7.10,-25.16,-139.00
0.409007,0.4263,0.1382,0.8779,-2.87,0.31,-0.85,7.08,-25.15,-139.01
0.451845,0.4307,0.1309,0.8892,-3.60,-0.55,-0.73,7.00,-25.16,-139.03
0.451845,0.4360,0.1304,0.8896,-3.60,-0.18,-0.49,6.94,-25.16,-139.04
0.468898,0.4365,0.1255,0.8872,-3.17,0.18,-0.49,6.88,-25.16,-139.04
0.468898,0.4312,0.1299,0.8848,-3.42,-0.06,-0.79,6.81,-25.16,-139.05
0.529367,0.4248,0.1343,0.8784,-2.56,-0.31,-0.37,6.76,-25.16,-139.06
0.529367,0.4263,0.1299,0.8872,-2.38,-0.06,0.31,6.71,-25.16,-139.06
0.558302,0.4282,0.1279,0.8950,-2.08,-0.61,0.49,6.66,-25.18,-139.05
0.558302,0.4336,0.1240,0.8950,-1.10,-0.55,0.92,6.61,-25.19,-139.03
0.591251,0.4395,0.1206,0.8838,-0.18,0.18,0.73,6.60,-25.20,-139.00
0.591251,0.4380,0.1216,0.8828,-1.53,-0.37,0.06,6.58,-25.20,-138.99
0.649234,0.4385,0.1196,0.8862,-2.99,-0.67,-0.31,6.53,-25.21,-138.99
0.649234,0.4355,0.1196,0.8979,-2.75,-0.37,-0.61,6.47,-25.22,-138.99
0.678298,0.4326,0.1221,0.8931,0.06,0.49,-0.06,6.45,-25.22,-139.00
0.678298,0.4307,0.1221,0.8848,0.31,0.49,-0.12,6.45,-25.21,-138.99
0.709042,0.4321,0.1245,0.8818,-0.73,-0.18,-0.31,6.45,-25.20,-138.99
0.709042,0.4375,0.1201,0.8901,-1.22,-0.31,-0.31,6.43,-25.21,-138.99
0.769102,0.4375,0.1182,0.8896,0.12,0.85,0.00,6.42,-25.20,-138.99
0.769102,0.4336,0.1191,0.8936,0.31,0.55,-0.43,6.43,-25.19,-138.98
0.798127,0.4341,0.1226,0.8862,0.12,0.18,-0.55,6.44,-25.18,-138.99
0.798127,0.4302,0.1230,0.8892,0.00,0.00,-0.67,6.44,-25.18,-139.00
0.829078,0.4292,0.1245,0.8867,-0.43,-0.37,-0.43,6.44,-25.18,-139.00
0.829078,0.4326,0.1245,0.8896,-0.73,-0.61,-0.12,6.43,-25.19,-139.01
0.889313,0.4375,0.1191,0.8921,0.55,0.12,-0.06,6.43,-25.19,-139.01
0.889313,0.4395,0.1187,0.8848,0.37,0.24,-0.61,6.45,-25.19,-139.01
0.918115,0.4312,0.1235,0.8853,-0.12,-0.12,-0.61,6.45,-25.19,-139.02
0.918115,0.4312,0.1235,0.8818,-0.31,-0.12,-0.61,6.45,-25.19,-139.03
0.949162,0.4268,0.1274,0.8828,-0.43,0.18,-0.67,6.45,-25.19,-139.04
0.949162,0.4189,0.1304,0.8887,-1.16,0.00,-0.43,6.44,-25.18,-139.05
1.009482,0.4194,0.1304,0.8911,-0.67,-0.43,0.55,6.42,-25.19,-139.04
1.009482,0.4297,0.1255,0.8926,-0.73,-0.79,0.73,6.39,-25.20,-139.02
1.038280,0.4370,0.1206,0.8853,-0.61,-0.24,0.85,6.38,-25.21,-139.00
1.038280,0.4395,0.1167,0.8867,0.24,0.49,0.98,6.36,-25.21,-138.97
1.068212,0.4399,0.1167,0.8828,-0.67,0.06,0.24,6.36,-25.21,-138.95
1.068212,0.4375,0.1172,0.8926,-0.73,-0.18,-0.18,6.34,-25.21,-138.94
1.128963,0.4355,0.1201,0.8945,-0.49,-0.24,-0.24,6.33,-25.22,-138.94
1.128963,0.4365,0.1211,0.8882,0.37,0.24,0.00,6.32,-25.22,-138.94
1.158144,0.4336,0.1211,0.8823,0.00,0.55,-0.37,6.33,-25.21,-138.94
1.158144,0.4263,0.1250,0.8848,-0.49,0.00,-0.12,6.33,-25.20,-138.94
1.189160,0.4297,0.1221,0.8940,-0.55,-0.43,0.37,6.32,-25.21,-138.94
1.189160,0.4380,0.1191,0.8936,0.24,-0.18,0.31,6.31,-25.21,-138.92
1.248934,0.4385,0.1167,0.8911,0.98,-0.06,-0.18,6.32,-25.22,-138.92
1.248934,0.4272,0.1240,0.8877,-0.24,-0.31,-0.43,6.33,-25.22,-138.92
1.278175,0.4316,0.1245,0.8848,-0.06,-1.04,0.43,6.33,-25.24,-138.92
1.278175,0.4419,0.1152,0.8818,-1.16,-0.73,-0.06,6.32,-25.25,-138.91
1.308971,0.4395,0.1182,0.8809,-0.92,-0.18,-0.55,6.30,-25.26,-138.92
1.308971,0.4355,0.1196,0.8872,-0.61,0.24,-0.43,6.28,-25.26,-138.92
1.369083,0.4321,0.1211,0.8887,-1.04,0.18,-0.49,6.27,-25.25,-138.93
1.369083,0.4263,0.1211,0.8931,-0.06,0.31,-0.37,6.26,-25.25,-138.93
1.398292,0.4253,0.1255,0.8887,0.00,-0.12,-0.18,6.25,-25.21,-138.93
1.398292,0.4302,0.1226,0.8877,0.06,-0.61,0.18,6.23,-25.20,-138.93
1.429221,0.4375,0.1167,0.8853,0.79,0.12,0.31,6.23,-25.19,-138.93
1.429221,0.4360,0.1187,0.8911,1.16,0.18,0.00,6.23,-25.19,-138.94
1.514156,0.4390,0.1182,0.8877,1.22,-0.18,0.00,6.23,-25.18,-138.94
1.514156,0.4385,0.1172,0.8862,1.59,0.37,-0.18,6.23,-25.18,-138.94
1.518613,0.4321,0.1245,0.8872,2.08,0.61,0.00,6.23,-25.18,-138.94
1.518613,0.4312,0.1245,0.8945,2.26,0.43,0.12,6.23,-25.18,-138.94
1.579052,0.4326,0.1250,0.8892,2.87,0.18,0.67,6.25,-25.18,-138.93
1.579052,0.4341,0.1226,0.8794,3.85,0.06,1.10,6.31,-25.18,-138.90
1.608523,0.4380,0.1250,0.8848,1.89,0.12,0.67,6.35,-25.18,-138.87
1.608523,0.4399,0.1206,0.9033,6.59,0.43,0.67,6.43,-25.17,-138.85
1.638959,0.4365,0.1270,0.9106,12.45,0.24,0.92,6.60,-25.16,-138.82
1.638959,0.4316,0.1284,0.9048,26.92,-1.40,1.59,6.99,-25.18,-138.80
1.699189,0.4409,0.1411,0.8628,16.54,-1.10,0.73,7.44,-25.22,-138.76
1.699189,0.4316,0.1465,0.8936,19.65,0.61,0.55,7.76,-25.22,-138.75
1.728356,0.4326,0.1538,0.8770,19.35,-0.06,0.06,8.18,-25.22,-138.73
1.728356,0.4292,0.1592,0.8975,16.85,0.73,0.00,8.51,-25.21,-138.72
1.759171,0.4351,0.1626,0.8784,19.84,1.59,0.18,8.89,-25.19,-138.71
1.759171,0.4336,0.1670,0.8804,19.84,1.16,-0.49,9.29,-25.16,-138.71
1.819080,0.4355,0.1729,0.8965,25.76,1.10,-0.37,9.73,-25.14,-138.71
1.819080,0.4346,0.1812,0.8970,39.25,1.40,0.24,10.40,-25.11,-138.69
1.848361,0.4321,0.1924,0.9028,54.87,-2.75,1.89,11.30,-25.11,-138.67
1.848361,0.4341,0.2231,0.8472,48.28,-0.73,0.61,12.40,-25.18,-138.64
1.879160,0.4575,0.2104,0.8735,41.02,0.31,-1.65,13.24,-25.17,-138.65
1.879160,0.4448,0.2412,0.8467,33.75,0.12,-3.36,14.06,-25.15,-138.70
1.939124,0.4253,0.2578,0.8403,22.52,-0.55,-2.20,14.62,-25.14,-138.75
1.939124,0.4233,0.2651,0.8477,16.05,-0.55,-2.20,15.02,-25.14,-138.80
1.968331,0.4185,0.2734,0.8481,8.67,-1.40,-2.81,15.29,-25.15,-138.85
1.968331,0.4131,0.2783,0.8525,5.92,-2.08,-1.16,15.44,-25.18,-138.90
1.999166,0.4165,0.2798,0.8506,0.37,-4.88,0.73,15.51,-25.24,-138.93
1.999166,0.4443,0.2559,0.8364,-1.71,-3.78,0.79,15.50,-25.35,-138.94
2.059273,0.4458,0.2607,0.8423,-2.93,-0.79,0.67,15.46,-25.38,-138.94
2.059273,0.4531,0.2529,0.8604,-6.04,-1.65,-0.24,15.36,-25.41,-138.93
2.089256,0.4531,0.2563,0.8530,-16.17,-2.93,-0.24,15.17,-25.46,-138.95
2.089256,0.4478,0.2515,0.8428,-37.11,-4.70,3.30,14.62,-25.53,-138.94
2.118973,0.4531,0.2290,0.8555,-42.91,-3.17,2.69,13.77,-25.64,-138.91
2.118973,0.4399,0.2212,0.8716,-46.39,-1.16,5.68,12.78,-25.70,-138.81
2.178291,0.4448,0.2124,0.8804,-31.13,0.43,5.86,11.98,-25.74,-138.68
2.178291,0.4238,0.2383,0.8828,-25.88,-4.03,4.21,11.39,-25.77,-138.56
2.208932,0.4434,0.1875,0.8911,-10.56,-1.16,1.59,10.93,-25.81,-138.49
2.208932,0.4321,0.1938,0.8799,-0.49,-2.81,0.92,10.85,-25.85,-138.46
2.238133,0.4355,0.1973,0.8823,1.89,-3.78,-1.10,10.88,-25.92,-138.48
2.238133,0.4399,0.1997,0.8872,10.99,-4.94,-1.71,11.02,-26.00,-138.53
2.299029,0.4458,0.2017,0.8779,22.34,-5.74,-2.75,11.40,-26.10,-138.60
2.299029,0.4473,0.2114,0.8555,23.62,-3.91,-4.09,11.92,-26.18,-138.70
2.328165,0.4502,0.2202,0.8340,27.95,-1.16,-1.10,12.47,-26.22,-138.77
2.328165,0.4492,0.2251,0.8232,13.31,0.79,-0.55,12.90,-26.22,-138.78
2.358929,0.4458,0.2305,0.8491,7.93,1.22,0.92,13.08,-26.19,-138.76
2.358929,0.4438,0.2334,0.8516,5.49,1.46,1.53,13.19,-26.17,-138.72
2.418977,0.4429,0.2324,0.8584,2.14,0.98,1.04,13.24,-26.16,-138.68
2.418977,0.4448,0.2344,0.8623,0.06,-0.31,1.95,13.26,-26.16,-138.65
2.448217,0.4521,0.2310,0.8623,-1.71,1.04,3.30,13.21,-26.17,-138.58
2.448217,0.4468,0.2290,0.8726,2.50,2.99,4.58,13.16,-26.15,-138.48
2.479164,0.4541,0.2256,0.8672,2.81,4.94,5.49,13.16,-26.11,-138.35
2.479164,0.4478,0.2266,0.8477,1.34,6.96,6.77,13.12,-26.01,-138.15
2.538969,0.4497,0.2241,0.8462,-2.38,6.35,5.19,13.01,-25.92,-137.98
2.538969,0.4497,0.2222,0.8652,-1.65,8.18,7.87,12.89,-25.82,-137.81
2.568174,0.4546,0.2178,0.8652,-1.10,10.68,10.31,12.77,-25.68,-137.54
2.568174,0.4526,0.2168,0.8633,-7.87,2.01,14.95,12.52,-25.60,-137.24
2.598914,0.4365,0.2192,0.8809,-9.16,3.11,6.65,12.22,-25.59,-136.99
2.598914,0.4355,0.1997,0.8433,-14.53,-2.38,5.13,11.91,-25.64,-136.93
2.659108,0.4468,0.2080,0.8657,-11.05,-11.41,16.72,11.65,-25.85,-136.74
2.659108,0.4526,0.2085,0.8359,-21.30,-15.14,20.94,11.21,-26.20,-136.38
2.688502,0.4692,0.1904,0.8496,-41.75,-14.04,20.63,10.37,-26.57,-136.00
2.688502,0.4639,0.1719,0.8535,-55.42,-8.54,23.44,9.20,-26.88,-135.57
2.718981,0.4707,0.1504,0.8564,-60.97,-1.22,24.41,7.76,-27.05,-135.02
2.718981,0.4727,0.1167,0.8862,-59.45,1.95,20.45,6.31,-27.10,-134.51
2.779486,0.4727,0.0928,0.8921,-47.36,3.78,15.69,5.04,-27.08,-134.09
2.779486,0.4648,0.0820,0.9048,-30.64,2.69,12.57,4.12,-27.04,-133.76
2.808340,0.4634,0.0786,0.8887,-13.73,-0.55,7.20,3.61,-27.05,-133.53
2.808340,0.4507,0.0674,0.8857,-12.39,-1.95,7.51,3.28,-27.08,-133.37
2.839127,0.4512,0.0747,0.8721,-10.01,-4.46,9.34,2.99,-27.16,-133.18
2.839127,0.4580,0.0698,0.8750,-5.49,-3.72,8.79,2.72,-27.27,-132.96
2.899040,0.4644,0.0566,0.8770,5.86,-2.26,4.82,2.66,-27.34,-132.81
2.899040,0.4692,0.0630,0.8853,8.91,-5.86,4.82,2.80,-27.43,-132.70
2.928385,0.4722,0.0620,0.8984,14.34,-8.00,3.42,2.98,-27.59,-132.60
2.928385,0.4692,0.0840,0.8623,18.68,-6.16,4.21,3.31,-27.73,-132.53
2.989257,0.4790,0.0796,0.8599,15.87,-5.19,5.55,3.62,-27.85,-132.41
2.989257,0.4785,0.0835,0.8589,4.88,-3.97,4.46,3.78,-27.96,-132.30
3.018338,0.4751,0.0835,0.8701,-0.55,1.22,4.15,3.77,-27.98,-132.19
3.018338,0.4756,0.0864,0.8730,-1.77,3.23,4.39,3.69,-27.94,-132.08
3.049084,0.4829,0.0762,0.8818,-10.74,5.86,-1.65,3.55,-27.87,-132.04
3.049084,0.4531,0.0767,0.8730,-7.20,5.07,-0.73,3.37,-27.76,-132.07
3.109100,0.4600,0.0796,0.8604,-7.57,2.26,-2.50,3.27,-27.70,-132.09
3.109100,0.4658,0.0815,0.8618,-7.63,-0.12,-4.39,3.15,-27.68,-132.17
3.138239,0.4644,0.0737,0.8701,-7.20,0.18,-3.85,3.05,-27.69,-132.26
3.138239,0.4634,0.0718,0.8765,-0.98,-0.37,-1.46,3.01,-27.69,-132.30
3.168966,0.4717,0.0679,0.8770,-0.67,-1.59,-1.16,3.00,-27.71,-132.32
3.168966,0.4712,0.0757,0.8721,-2.08,-3.91,-2.99,3.02,-27.77,-132.37
3.228335,0.4775,0.0645,0.8784,-2.87,-3.30,-2.44,2.99,-27.86,-132.43
3.228335,0.4839,0.0605,0.8569,-3.91,0.49,-2.08,2.97,-27.88,-132.47
3.258344,0.4790,0.0630,0.8623,-8.06,1.40,-2.08,2.85,-27.86,-132.52
3.258344,0.4775,0.0615,0.8579,-6.90,2.32,-1.95,2.74,-27.82,-132.55
3.288584,0.4736,0.0625,0.8711,-7.14,2.81,-2.44,2.64,-27.77,-132.59
3.288584,0.4629,0.0654,0.8906,-3.97,2.93,-2.26,2.54,-27.71,-132.63
3.348302,0.4653,0.0728,0.8730,-2.26,1.16,-2.50,2.52,-27.69,-132.65
3.348302,0.4614,0.0649,0.8652,-2.38,2.01,-1.83,2.49,-27.66,-132.68
3.378241,0.4526,0.0737,0.8701,-0.85,1.71,-0.43,2.46,-27.64,-132.69
3.378241,0.4463,0.0723,0.8940,1.16,1.95,0.18,2.46,-27.60,-132.68
3.408182,0.4521,0.0762,0.8872,-0.24,-0.31,1.71,2.47,-27.60,-132.64
3.408182,0.4741,0.0547,0.8857,2.75,-0.43,2.56,2.46,-27.62,-132.57
3.468370,0.4697,0.0601,0.8813,3.60,-2.50,2.20,2.49,-27.65,-132.50
3.468370,0.4736,0.0591,0.8643,5.74,-7.93,0.61,2.57,-27.77,-132.47
3.498220,0.4839,0.0552,0.8652,15.50,-4.94,-1.28,2.81,-27.91,-132.48
3.498220,0.4771,0.0645,0.8979,32.59,-1.89,-2.26,3.30,-27.98,-132.52
3.528192,0.4819,0.0718,0.8901,49.87,-1.95,-1.10,4.16,-28.01,-132.55
3.528192,0.4854,0.0840,0.8784,59.57,-5.62,0.00,5.29,-28.08,-132.57
3.588648,0.4937,0.1104,0.8584,54.20,-7.02,1.16,6.44,-28.22,-132.56
3.588648,0.4980,0.1265,0.8359,31.80,-0.92,-2.75,7.34,-28.30,-132.59
3.618390,0.4907,0.1289,0.8677,16.24,0.98,-4.58,7.83,-28.27,-132.69
3.618390,0.4854,0.1450,0.8716,13.67,0.43,-3.97,8.20,-28.30,-132.81
3.648319,0.4819,0.1489,0.8711,11.35,1.10,-2.38,8.52,-28.28,-132.89
3.648319,0.4775,0.1538,0.8716,9.46,1.65,-0.49,8.83,-28.21,-132.98
3.708501,0.4736,0.1611,0.8696,14.16,1.59,0.31,9.09,-28.19,-132.99
3.708501,0.4727,0.1670,0.8550,16.17,0.61,-0.18,9.47,-28.21,-133.02
3.738363,0.4678,0.1724,0.8501,12.27,0.61,-0.98,9.76,-28.20,-133.03
3.738363,0.4712,0.1792,0.8560,13.92,2.08,-0.49,10.01,-28.18,-133.04
3.768393,0.4673,0.1855,0.8545,13.24,3.23,1.22,10.28,-28.13,-133.02
3.768393,0.4648,0.1846,0.8696,18.25,4.21,2.56,10.55,-28.07,-132.95
3.828371,0.4639,0.1899,0.8677,23.19,2.38,1.59,10.94,-28.01,-132.87
3.828371,0.4722,0.1968,0.8418,19.23,2.50,2.32,11.37,-27.98,-132.81
3.858306,0.4722,0.1992,0.8413,12.45,3.48,3.23,11.62,-27.93,-132.74
3.858306,0.4775,0.1943,0.8413,9.83,4.33,3.72,11.80,-27.88,-132.63
3.888518,0.4712,0.2061,0.8550,7.45,3.66,3.23,11.91,-27.82,-132.53
3.888518,0.4692,0.2056,0.8687,7.32,1.46,2.32,12.02,-27.78,-132.45
3.948678,0.4639,0.2065,0.8613,8.85,0.43,1.16,12.17,-27.78,-132.40
3.948678,0.4707,0.2065,0.8555,10.68,-0.31,0.79,12.35,-27.78,-132.38
3.978381,0.4683,0.2104,0.8496,14.59,0.24,1.22,12.59,-27.80,-132.36
3.978381,0.4722,0.2188,0.8442,15.38,-0.43,0.73,12.89,-27.81,-132.34
4.008240,0.4707,0.2212,0.8398,13.12,-1.34,0.18,13.18,-27.83,-132.33
4.008240,0.4717,0.2256,0.8413,7.81,-2.50,-0.43,13.39,-27.88,-132.34
4.068317,0.4614,0.2026,0.8428,4.82,-3.54,2.38,13.51,-27.94,-132.36
4.068317,0.4751,0.2446,0.8267,6.77,-4.64,4.76,13.62,-28.06,-132.28
4.098291,0.4863,0.2285,0.8403,-1.53,-4.15,2.62,13.60,-28.16,-132.24
4.098291,0.4844,0.2188,0.8574,3.17,-9.83,5.74,13.60,-28.31,-132.18
4.128208,0.4990,0.2148,0.8462,0.98,-12.51,5.19,13.62,-28.56,-132.13
4.128208,0.5020,0.2124,0.8301,-2.93,-11.78,3.91,13.60,-28.83,-132.09
4.188600,0.4917,0.2212,0.8291,-8.06,-11.35,4.03,13.45,-29.07,-132.08
4.188600,0.4741,0.2383,0.8374,-2.50,-12.33,4.21,13.34,-29.33,-132.06
4.218956,0.5093,0.2646,0.8477,0.49,-4.09,18.92,13.29,-29.62,-131.93
4.218956,0.4741,0.2163,0.8350,0.55,-6.71,7.93,13.06,-29.81,-131.48
4.248109,0.5005,0.2070,0.8301,1.65,-6.35,3.78,13.03,-29.96,-131.42
4.248109,0.5107,0.2109,0.7686,-13.12,4.39,1.59,12.95,-30.01,-131.36
4.308356,0.4976,0.2114,0.8218,-12.88,6.16,2.44,12.63,-29.92,-131.30
4.308356,0.4976,0.2134,0.8555,-8.85,3.23,3.36,12.35,-29.82,-131.20
4.338226,0.5068,0.1953,0.8672,-3.72,-1.28,2.87,12.19,-29.82,-131.13
4.338226,0.5088,0.1924,0.8623,3.85,-2.50,1.95,12.18,-29.88,-131.08
4.398301,0.5181,0.1919,0.8403,8.06,-2.26,1.77,12.30,-29.94,-131.07
4.398301,0.5239,0.1890,0.8359,10.13,-3.05,0.92,12.47,-30.01,-131.04
4.428249,0.5137,0.2002,0.8276,13.79,-2.99,-0.43,12.73,-30.07,-131.06
4.428249,0.5020,0.2158,0.8320,9.40,-3.91,-1.89,12.99,-30.14,-131.10
4.458622,0.4951,0.2183,0.8218,0.31,-0.98,-1.59,13.11,-30.18,-131.15
4.458622,0.4878,0.2271,0.8291,-2.01,-1.22,-1.28,13.08,-30.18,-131.19
4.519168,0.4951,0.2251,0.8276,-3.78,-1.53,-0.67,13.04,-30.21,-131.22
4.519168,0.5024,0.2163,0.8315,-4.39,-1.59,-0.67,12.98,-30.24,-131.23
4.548282,0.5156,0.2061,0.8320,-6.41,-1.22,-1.53,12.88,-30.26,-131.26
4.548282,0.5244,0.1934,0.8281,-6.23,1.34,-5.49,12.80,-30.25,-131.33
4.578810,0.5215,0.1934,0.8311,-7.63,0.24,-6.29,12.70,-30.21,-131.45
4.578810,0.5137,0.2017,0.8315,-8.12,1.22,-7.39,12.61,-30.16,-131.59
4.638357,0.5000,0.2114,0.8335,-9.03,1.46,-7.93,12.54,-30.09,-131.76
4.638357,0.4951,0.2158,0.8320,-8.00,1.40,-6.71,12.45,-30.03,-131.91
4.668279,0.4951,0.2095,0.8306,-6.53,1.16,-5.07,12.37,-29.98,-132.03
4.668279,0.4961,0.2095,0.8271,-8.12,1.28,-5.00,12.27,-29.93,-132.13
4.698240,0.5005,0.2012,0.8281,-8.67,1.59,-4.52,12.15,-29.88,-132.23
4.698240,0.4985,0.1978,0.8232,-8.18,2.32,-4.88,12.04,-29.82,-132.31
4.758346,0.5010,0.1929,0.8203,-7.45,2.56,-5.43,11.93,-29.75,-132.41
4.758346,0.4897,0.2017,0.8467,-8.24,2.14,-6.10,11.82,-29.67,-132.53
4.788614,0.4854,0.2095,0.8569,-4.52,1.46,-3.48,11.74,-29.61,-132.62
4.788614,0.4907,0.2002,0.8604,-3.23,1.22,-2.44,11.69,-29.58,-132.67
4.819061,0.4956,0.1943,0.8413,-0.43,1.34,-2.32,11.69,-29.54,-132.71
4.819061,0.4971,0.1943,0.8335,-3.42,1.34,-3.23,11.68,-29.50,-132.76
4.878304,0.4961,0.1938,0.8462,-2.62,1.28,-2.81,11.64,-29.45,-132.82
4.878304,0.4932,0.1973,0.8516,-2.08,1.34,-2.69,11.62,-29.42,-132.87
4.908263,0.4883,0.1992,0.8496,2.26,1.77,-1.04,11.65,-29.38,-132.90
4.908263,0.4897,0.2002,0.8394,2.20,1.16,0.06,11.69,-29.34,-132.89
4.938236,0.4922,0.1982,0.8330,1.46,1.04,0.43,11.72,-29.32,-132.87
4.938236,0.4883,0.2002,0.8403,-0.43,0.61,0.24,11.72,-29.31,-132.85
4.998369,0.4873,0.1992,0.8442,-0.06,0.12,0.55,11.71,-29.30,-132.84
4.998369,0.4849,0.1987,0.8486,0.00,0.31,0.49,11.70,-29.30,-132.82
5.028299,0.4805,0.2065,0.8564,2.87,1.28,1.65,11.71,-29.28,-132.78
5.028299,0.4771,0.2114,0.8408,2.50,0.85,2.44,11.74,-29.27,-132.73
5.058299,0.4692,0.2158,0.8403,2.87,0.67,4.52,11.77,-29.27,-132.64
5.058299,0.4561,0.2256,0.8403,-3.30,1.10,8.30,11.69,-29.28,-132.47
5.119087,0.4707,0.2104,0.8369,-5.49,0.31,9.83,11.49,-29.32,-132.25
5.119087,0.4775,0.2007,0.8442,-1.71,1.16,11.72,11.29,-29.34,-132.00
5.150310,0.4902,0.1880,0.8389,-2.75,-0.12,10.80,11.11,-29.39,-131.73
5.150310,0.5039,0.1733,0.8496,-2.56,-0.37,8.97,10.94,-29.43,-131.50
5.178405,0.5176,0.1611,0.8486,-1.46,0.06,6.90,10.80,-29.47,-131.31
5.178405,0.5171,0.1616,0.8442,0.55,0.00,2.44,10.74,-29.48,-131.20
5.238262,0.5117,0.1699,0.8481,3.30,-1.28,-1.04,10.77,-29.50,-131.19
5.238262,0.5083,0.1748,0.8447,3.36,-0.43,-3.05,10.88,-29.51,-131.25
5.268226,0.5068,0.1772,0.8438,7.87,2.01,-1.46,11.02,-29.49,-131.29
5.268226,0.5020,0.1841,0.8428,7.20,3.36,-0.61,11.18,-29.42,-131.30
5.299579,0.4971,0.1890,0.8423,6.59,2.99,1.40,11.29,-29.36,-131.26
5.299579,0.4985,0.1875,0.8364,5.92,2.44,1.46,11.40,-29.32,-131.21
5.358368,0.5020,0.1880,0.8359,4.88,2.14,0.92,11.49,-29.28,-131.17
5.358368,0.4976,0.1899,0.8418,4.21,1.34,-0.31,11.56,-29.24,-131.14
5.388585,0.4946,0.1934,0.8506,5.98,1.22,-0.55,11.66,-29.22,-131.14
5.388585,0.4937,0.1929,0.8442,5.62,1.22,-0.67,11.79,-29.19,-131.14
5.418389,0.4937,0.1978,0.8350,3.97,0.61,-0.73,11.88,-29.16,-131.15
5.418389,0.4971,0.1963,0.8364,1.59,-0.12,-1.59,11.95,-29.15,-131.17
5.478389,0.4927,0.2002,0.8418,0.43,-0.18,-1.95,12.00,-29.15,-131.21
5.478389,0.4854,0.2056,0.8491,0.37,0.06,-1.53,12.02,-29.14,-131.24
5.508309,0.4844,0.2041,0.8418,-2.01,-0.37,-1.46,12.02,-29.14,-131.27
5.508309,0.4922,0.2021,0.8296,-2.01,0.31,-0.67,11.99,-29.14,-131.29
5.538260,0.4912,0.1948,0.8389,-5.86,0.61,-0.73,11.91,-29.12,-131.30
5.538260,0.4971,0.1938,0.8423,-7.87,-0.24,-1.04,11.78,-29.11,-131.31
5.598309,0.4971,0.1909,0.8579,-7.69,0.00,-1.16,11.62,-29.11,-131.34
5.598309,0.4922,0.1914,0.8521,-4.52,0.37,-1.59,11.53,-29.10,-131.36
5.628276,0.4893,0.1934,0.8535,-5.13,-0.31,-0.73,11.44,-29.09,-131.38
5.628276,0.4927,0.1899,0.8438,-0.24,0.98,-0.79,11.41,-29.08,-131.39
5.658221,0.4873,0.1938,0.8438,-1.59,0.85,-1.04,11.40,-29.06,-131.40
5.658221,0.4878,0.1953,0.8428,-0.85,0.43,-0.98,11.38,-29.04,-131.41
5.719109,0.4888,0.1924,0.8501,1.16,0.79,-1.16,11.39,-29.03,-131.43
5.719109,0.4863,0.1938,0.8511,2.62,0.98,-1.59,11.44,-29.00,-131.45
5.748262,0.4814,0.1982,0.8477,2.93,0.67,-1.46,11.50,-28.98,-131.47
5.748262,0.4834,0.1982,0.8403,2.56,0.61,-1.34,11.57,-28.95,-131.50
5.862678,0.4834,0.1997,0.8462,3.54,0.31,-1.89,11.66,-28.94,-131.52
5.862678,0.4868,0.1978,0.8447,4.94,0.79,-2.08,11.76,-28.92,-131.56
5.862719,0.4868,0.2002,0.8423,4.94,1.22,-1.89,11.88,-28.89,-131.59
5.862719,0.4878,0.1987,0.8374,1.59,1.28,-1.40,11.96,-28.86,-131.62
5.870235,0.4839,0.2031,0.8462,0.61,0.49,-1.53,11.99,-28.83,-131.64
5.870235,0.4834,0.2046,0.8472,-0.18,0.00,-1.53,12.02,-28.82,-131.67
5.929078,0.4805,0.2061,0.8452,-1.34,-0.31,-1.10,12.02,-28.82,-131.70
5.929078,0.4805,0.2051,0.8447,-0.98,-0.06,-0.49,11.99,-28.82,-131.71
5.958237,0.4839,0.2036,0.8394,-2.62,-0.18,-0.49,11.96,-28.82,-131.72
5.958237,0.4863,0.2017,0.8452,-1.16,-0.24,-0.18,11.93,-28.82,-131.72
6.019293,0.4897,0.1958,0.8467,-2.50,-0.24,-0.85,11.90,-28.82,-131.73
6.019293,0.4878,0.2007,0.8491,-0.18,0.00,-0.49,11.88,-28.82,-131.74
6.048612,0.4893,0.1953,0.8462,-1.71,0.00,-0.98,11.87,-28.82,-131.75
6.048612,0.4858,0.1992,0.8389,-0.67,0.24,-0.92,11.85,-28.81,-131.76
6.079376,0.4834,0.2007,0.8477,-1.77,0.18,-1.16,11.83,-28.80,-131.79
6.079376,0.4839,0.2026,0.8491,-0.55,-0.06,-1.04,11.82,-28.79,-131.80
6.108791,0.4829,0.2012,0.8486,-1.40,0.00,-0.92,11.81,-28.79,-131.82
6.108791,0.4824,0.2021,0.8452,-0.37,0.00,-0.55,11.80,-28.78,-131.83
6.169098,0.4863,0.1958,0.8442,-2.32,-0.61,-0.92,11.78,-28.78,-131.84
6.169098,0.4927,0.1924,0.8428,-0.55,0.00,-1.10,11.76,-28.79,-131.86
6.231272,0.4907,0.1934,0.8462,-1.10,0.98,-1.89,11.76,-28.77,-131.89
6.231272,0.4829,0.2021,0.8477,-0.24,0.67,-1.65,11.76,-28.74,-131.92
6.231566,0.4790,0.2021,0.8501,-1.28,0.43,-1.71,11.76,-28.72,-131.95
6.231566,0.4780,0.2031,0.8501,-0.73,0.00,-1.53,11.76,-28.71,-131.98
6.290353,0.4814,0.2007,0.8433,-2.01,0.00,-1.04,11.74,-28.71,-132.01
6.290353,0.4854,0.1987,0.8413,-1.22,0.18,-0.98,11.73,-28.70,-132.02
6.321384,0.4873,0.1978,0.8481,-1.95,0.00,-1.46,11.71,-28.69,-132.04
6.321384,0.4854,0.1968,0.8530,-0.18,0.24,-1.28,11.69,-28.68,-132.07
6.351412,0.4829,0.1973,0.8501,-0.18,0.18,-1.59,11.70,-28.67,-132.09
6.351412,0.4819,0.1997,0.8403,-0.43,0.31,-1.34,11.72,-28.66,-132.12
6.409437,0.4800,0.1992,0.8428,-2.26,0.06,-1.59,11.70,-28.65,-132.15
6.409437,0.4844,0.1982,0.8447,-0.43,0.18,-0.79,11.68,-28.64,-132.17
6.439410,0.4829,0.1953,0.8564,-1.22,0.06,-1.34,11.67,-28.63,-132.19
6.439410,0.4814,0.1997,0.8555,0.61,0.00,-1.16,11.67,-28.62,-132.20
6.468799,0.4800,0.1992,0.8496,-0.18,-0.37,-1.10,11.66,-28.54,-132.20
6.468799,0.4839,0.1973,0.8389,0.18,0.00,-0.73,11.66,-28.50,-132.21
6.529676,0.4829,0.1963,0.8433,-1.10,0.18,-0.98,11.66,-28.49,-132.21
6.529676,0.4834,0.1992,0.8540,-0.18,0.00,-0.79,11.65,-28.48,-132.21
6.558745,0.4819,0.1982,0.8560,-0.31,-0.24,-1.04,11.65,-28.47,-132.21
6.558745,0.4800,0.1997,0.8442,0.85,0.06,-0.92,11.65,-28.47,-132.21
6.589596,0.4761,0.2017,0.8423,0.85,0.73,-1.10,11.65,-28.46,-132.21
6.589596,0.4766,0.2041,0.8398,0.85,0.49,-0.73,11.65,-28.45,-132.21
6.649846,0.4780,0.2041,0.8516,0.98,0.67,-0.49,11.65,-28.45,-132.21
6.649846,0.4790,0.2041,0.8501,0.67,0.67,-0.43,11.65,-28.45,-132.22
6.679051,0.4790,0.2007,0.8486,0.85,0.12,-0.37,11.65,-28.44,-132.22
6.679051,0.4844,0.1978,0.8447,0.85,0.00,-0.79,11.65,-28.44,-132.22
6.709531,0.4878,0.1973,0.8418,0.92,0.00,-0.24,11.65,-28.44,-132.22
6.709531,0.4800,0.2012,0.8491,-0.49,0.12,-0.67,11.65,-28.44,-132.22
6.769402,0.4761,0.2100,0.8496,-2.69,0.92,-2.69,11.65,-28.39,-132.28
6.769402,0.4834,0.2002,0.8481,-0.79,0.67,-1.83,11.65,-28.38,-132.31
6.798747,0.4780,0.2017,0.8457,-1.10,0.79,-2.93,11.65,-28.35,-132.36
6.798747,0.4829,0.1987,0.8472,-2.44,-0.31,-2.26,11.63,-28.34,-132.41
6.829459,0.4863,0.1953,0.8481,-1.77,0.18,-2.20,11.61,-28.33,-132.45
6.829459,0.4819,0.1992,0.8545,-0.24,1.16,-1.83,11.61,-28.31,-132.49
6.889332,0.4756,0.2041,0.8555,0.18,0.79,-1.28,11.62,-28.28,-132.52
6.889332,0.4775,0.2021,0.8477,0.79,0.79,-0.92,11.65,-28.27,-132.53
6.918975,0.4800,0.1992,0.8442,1.34,1.10,-0.85,11.68,-28.25,-132.54
6.918975,0.4775,0.2026,0.8511,1.16,0.79,-0.92,11.71,-28.22,-132.54
6.949291,0.4766,0.2036,0.8569,1.59,0.98,-0.79,11.74,-28.20,-132.56
6.949291,0.4771,0.2026,0.8550,3.11,1.46,-0.37,11.79,-28.17,-132.56
7.009293,0.4780,0.2041,0.8472,2.62,1.16,-0.67,11.85,-28.15,-132.56
7.009293,0.4731,0.2065,0.8467,3.05,1.53,-0.37,11.90,-28.12,-132.56
7.038891,0.4756,0.2070,0.8540,2.75,1.53,-0.31,11.96,-28.09,-132.54
7.038891,0.4751,0.2075,0.8535,2.14,0.55,-0.61,12.01,-28.06,-132.54
7.068758,0.4751,0.2070,0.8506,3.66,1.10,-0.12,12.07,-28.05,-132.54
7.068758,0.4756,0.2090,0.8472,3.97,1.71,-0.12,12.15,-28.02,-132.53
7.129384,0.4746,0.2095,0.8467,4.33,1.59,-0.31,12.23,-27.99,-132.52
7.129384,0.4741,0.2109,0.8486,3.91,1.28,0.06,12.30,-27.97,-132.52
7.158870,0.4800,0.2100,0.8560,2.87,1.89,0.06,12.37,-27.93,-132.50
7.158870,0.4775,0.2119,0.8535,4.15,1.16,0.00,12.44,-27.91,-132.48
7.219539,0.4741,0.2119,0.8584,7.87,3.30,-0.49,12.55,-27.86,-132.47
7.219539,0.4609,0.2354,0.8081,10.44,2.26,0.49,12.81,-27.80,-132.45
7.248478,0.4609,0.2295,0.8501,2.08,2.38,-0.24,12.86,-27.75,-132.44
7.248478,0.4717,0.2192,0.8457,-0.24,1.28,-0.12,12.88,-27.72,-132.42
7.279468,0.4766,0.2173,0.8633,0.49,1.53,-0.43,12.88,-27.69,-132.42
7.279468,0.4844,0.2104,0.8574,3.72,3.66,-0.67,12.93,-27.64,-132.41
7.339446,0.4849,0.2114,0.8594,8.42,5.19,-0.98,13.04,-27.55,-132.40
7.339446,0.4839,0.2095,0.8481,10.86,5.92,-2.69,13.24,-27.43,-132.40
7.368297,0.4619,0.2305,0.8652,19.71,6.04,-3.97,13.54,-27.30,-132.43
7.368297,0.4517,0.2446,0.8428,10.74,5.07,-3.97,13.87,-27.17,-132.48
7.399445,0.4370,0.2578,0.8594,15.56,2.56,-2.20,14.13,-27.08,-132.53
7.399445,0.4355,0.2642,0.8115,9.34,1.10,-0.92,14.42,-27.04,-132.54
7.459610,0.4375,0.2656,0.8354,4.09,-3.60,1.95,14.53,-27.05,-132.54
7.459610,0.4521,0.2642,0.8403,-1.34,-1.28,0.85,14.53,-27.12,-132.50
7.488531,0.4639,0.2456,0.8496,-1.77,-1.04,1.10,14.51,-27.14,-132.48
7.488531,0.4722,0.2368,0.8481,-2.01,-0.92,0.49,14.45,-27.17,-132.46
7.519474,0.4741,0.2383,0.8433,-2.99,-1.10,-0.12,14.40,-27.19,-132.46
7.519474,0.4673,0.2407,0.8452,-5.31,-1.53,-0.92,14.32,-27.21,-132.48
7.579595,0.4575,0.2451,0.8530,-5.00,-1.59,-1.04,14.23,-27.24,-132.51
7.579595,0.4541,0.2476,0.8530,-2.93,-0.92,0.00,14.16,-27.26,-132.52
7.609516,0.4590,0.2437,0.8384,-2.69,-1.28,0.37,14.10,-27.29,-132.51
7.609516,0.4634,0.2397,0.8447,-3.54,-1.34,0.43,14.03,-27.32,-132.51
7.638854,0.4692,0.2324,0.8525,-3.91,-1.40,0.12,13.96,-27.35,-132.51
7.638854,0.4756,0.2310,0.8579,-1.16,-0.61,0.06,13.90,-27.37,-132.51
7.699322,0.4731,0.2314,0.8506,-0.98,-0.49,-0.55,13.89,-27.38,-132.51
7.699322,0.4683,0.2319,0.8413,-0.98,-0.31,-1.04,13.88,-27.39,-132.52
7.731074,0.4663,0.2354,0.8433,-1.65,-0.49,-1.10,13.86,-27.39,-132.55
7.731074,0.4658,0.2339,0.8535,-2.08,-0.06,-1.04,13.83,-27.39,-132.57
7.761570,0.4619,0.2393,0.8496,0.92,0.49,-0.43,13.84,-27.38,-132.58
7.761570,0.4624,0.2363,0.8496,-0.55,-0.12,-0.67,13.84,-27.38,-132.59
7.819508,0.4678,0.2344,0.8394,0.61,0.06,-0.92,13.85,-27.38,-132.60
7.819508,0.4648,0.2363,0.8472,-0.67,0.00,-1.16,13.85,-27.37,-132.62
7.848332,0.4663,0.2368,0.8506,-0.18,0.12,-0.92,13.86,-27.37,-132.64
7.848332,0.4639,0.2358,0.8545,-0.85,-0.06,-1.22,13.85,-27.36,-132.66
7.879236,0.4624,0.2378,0.8457,-0.06,-0.12,-1.22,13.86,-27.36,-132.68
7.879236,0.4624,0.2388,0.8457,-0.12,0.00,-0.98,13.86,-27.36,-132.70
7.939277,0.4595,0.2407,0.8433,-0.85,0.06,-0.92,13.87,-27.35,-132.72
7.939277,0.4600,0.2402,0.8481,-0.06,0.18,-0.18,13.86,-27.34,-132.73
7.969379,0.4604,0.2383,0.8525,-0.85,-0.18,-0.24,13.85,-27.34,-132.73
7.969379,0.4668,0.2354,0.8545,0.43,-0.43,-0.24,13.85,-27.35,-132.73
7.998346,0.4702,0.2329,0.8467,-0.73,-0.67,-0.55,13.85,-27.36,-132.74
7.998346,0.4688,0.2324,0.8438,-0.24,-0.31,-0.49,13.85,-27.37,-132.75
8.059157,0.4673,0.2358,0.8428,-1.40,0.06,-1.04,13.84,-27.37,-132.76
8.059157,0.4609,0.2393,0.8506,-0.43,0.00,-0.85,13.83,-27.36,-132.78
8.089553,0.4590,0.2412,0.8521,-0.37,-0.31,-0.55,13.83,-27.36,-132.79
8.089553,0.4570,0.2417,0.8506,-0.43,-0.73,0.00,13.82,-27.38,-132.80
8.118540,0.4619,0.2373,0.8447,-0.55,-0.55,0.31,13.82,-27.39,-132.79
8.118540,0.4707,0.2319,0.8447,-1.22,-0.61,-0.24,13.80,-27.41,-132.79
8.179163,0.4702,0.2334,0.8511,0.37,0.00,-0.31,13.79,-27.41,-132.79
8.179163,0.4668,0.2339,0.8555,-0.73,-0.06,-0.49,13.79,-27.41,-132.80
8.208751,0.4663,0.2349,0.8452,0.43,0.00,-0.18,13.79,-27.41,-132.80
8.208751,0.4604,0.2388,0.8384,-0.24,0.24,-0.61,13.79,-27.41,-132.80
8.241170,0.4551,0.2412,0.8418,-1.95,-0.18,-0.55,13.78,-27.40,-132.81
8.241170,0.4634,0.2358,0.8564,-0.85,-0.49,-0.12,13.75,-27.41,-132.82
8.300455,0.4692,0.2329,0.8540,0.12,-0.24,-0.31,13.75,-27.42,-132.82
8.300455,0.4683,0.2354,0.8496,1.10,-0.43,0.06,13.77,-27.42,-132.82
8.330938,0.4697,0.2305,0.8408,-0.73,-0.55,-0.49,13.78,-27.43,-132.82
8.330938,0.4692,0.2329,0.8442,0.61,0.00,-0.49,13.77,-27.43,-132.83
8.359704,0.4648,0.2339,0.8501,0.55,0.98,-0.73,13.79,-27.42,-132.84
8.359704,0.4604,0.2407,0.8452,1.46,0.92,-0.31,13.82,-27.40,-132.84
8.421367,0.4575,0.2412,0.8501,0.49,0.67,-0.06,13.83,-27.38,-132.83
8.421367,0.4609,0.2388,0.8506,0.49,0.24,0.00,13.84,-27.37,-132.82
8.451203,0.4629,0.2378,0.8472,0.00,0.06,-0.18,13.85,-27.37,-132.82
8.451203,0.4658,0.2354,0.8438,-0.12,-0.06,-0.06,13.84,-27.37,-132.82
8.479041,0.4673,0.2354,0.8501,-0.67,-0.18,-0.37,13.84,-27.37,-132.82
8.479041,0.4644,0.2373,0.8521,-0.31,-0.06,-0.37,13.84,-27.38,-132.82
8.539126,0.4614,0.2383,0.8506,0.79,0.00,0.06,13.86,-27.34,-132.85
8.539126,0.4644,0.2349,0.8452,-0.43,-0.37,-0.06,13.88,-27.32,-132.86
8.568890,0.4663,0.2383,0.8452,-0.67,-0.79,-0.31,13.89,-27.31,-132.86
8.568890,0.4648,0.2368,0.8545,-1.77,-0.73,-0.49,13.90,-27.30,-132.87
8.629395,0.4697,0.2339,0.8511,2.01,0.43,0.43,13.90,-27.29,-132.87
8.629395,0.4648,0.2354,0.8477,0.79,0.37,-0.06,13.91,-27.28,-132.87
8.658396,0.4604,0.2412,0.8452,0.61,-0.12,0.12,13.91,-27.28,-132.87
8.658396,0.4653,0.2373,0.8452,-0.06,0.00,0.37,13.91,-27.27,-132.88
8.689269,0.4648,0.2378,0.8423,0.12,0.49,0.12,13.91,-27.27,-132.88
8.689269,0.4644,0.2378,0.8467,-0.18,0.00,0.00,13.92,-27.27,-132.88
8.749480,0.4663,0.2354,0.8501,-0.31,0.06,0.12,13.92,-27.26,-132.89
8.749480,0.4678,0.2358,0.8501,-0.61,0.12,-0.18,13.93,-27.26,-132.89
8.778528,0.4648,0.2388,0.8403,-2.14,-0.67,-0.61,13.93,-27.26,-132.89
8.778528,0.4639,0.2368,0.8369,-3.48,-0.92,-0.55,13.89,-27.27,-132.90
8.809203,0.4678,0.2324,0.8423,-0.37,0.49,-0.06,13.85,-27.27,-132.90
8.809203,0.4653,0.2354,0.8550,-1.04,0.61,-0.73,13.85,-27.26,-132.90
8.869101,0.4609,0.2388,0.8643,-1.28,-0.79,-0.73,13.83,-27.26,-132.91
8.869101,0.4658,0.2354,0.8550,-0.06,-0.49,-0.18,13.82,-27.27,-132.92
8.898628,0.4658,0.2329,0.8438,2.01,0.43,-0.06,13.84,-27.27,-132.92
8.898628,0.4653,0.2354,0.8369,-0.12,0.12,-0.31,13.86,-27.27,-132.92
8.929716,0.4634,0.2363,0.8438,-1.40,-0.18,-0.43,13.85,-27.27,-132.92
8.929716,0.4639,0.2358,0.8545,-1.04,-0.12,-0.37,13.83,-27.27,-132.93
9.159074,0.4639,0.2354,0.8550,-0.55,-0.37,-0.37,13.80,-27.27,-132.93
9.159074,0.4624,0.2354,0.8481,0.67,-0.06,-0.06,13.82,-27.28,-132.93
9.159106,0.4624,0.2368,0.8462,-0.55,-0.31,0.06,13.82,-27.28,-132.93
9.159106,0.4668,0.2334,0.8491,-0.55,-0.49,0.31,13.83,-27.27,-132.93
12.874912,0.4395,0.2031,0.8013,-69.21,-3.97,-15.38,11.57,-27.88,-139.56
12.874912,0.4443,0.2026,0.8877,-45.23,-3.11,-14.34,10.61,-27.87,-139.96
12.895994,0.4600,0.1875,0.8501,-41.56,-2.87,-12.88,9.95,-27.87,-140.30
12.895994,0.4600,0.1738,0.8828,-34.85,-2.87,-9.77,9.27,-27.88,-140.55
12.919793,0.4697,0.1611,0.8672,-16.85,-0.31,-9.03,8.89,-27.88,-140.77
12.919793,0.4795,0.1514,0.8560,-11.29,-0.24,-11.60,8.73,-27.84,-140.99
12.978726,0.4863,0.1519,0.8501,-10.80,-1.16,-14.34,8.68,-27.83,-141.29
12.978726,0.4775,0.1577,0.8535,-15.14,-1.34,-15.14,8.58,-27.80,-141.62
13.008468,0.4536,0.0840,0.8525,-16.24,-4.15,-13.61,8.43,-27.80,-141.98
13.008468,0.4688,0.1685,0.8569,-18.98,-4.15,-19.41,8.19,-27.84,-142.26
13.038422,0.4468,0.1484,0.7974,-15.56,-1.10,-27.16,7.98,-27.87,-142.71
13.038422,0.4604,0.2192,0.8418,-1.71,5.31,-26.86,8.20,-27.70,-143.36
13.098963,0.4824,0.1445,0.8081,-3.30,10.19,-19.65,8.40,-27.47,-143.83
13.098963,0.4766,0.1602,0.8174,-3.91,15.44,-25.76,8.54,-27.12,-144.29
13.178506,0.4570,0.1660,0.8608,-9.77,16.42,-20.02,8.64,-26.69,-144.77
13.178506,0.4272,0.1660,0.8804,-10.07,19.90,-7.02,8.52,-26.29,-145.00
13.178580,0.4111,0.1489,0.9380,-7.14,10.56,1.65,8.35,-25.93,-144.98
13.178580,0.4170,0.1616,0.9419,-2.32,7.63,2.75,8.23,-25.83,-144.88
13.218708,0.4419,0.1221,0.9331,-3.97,8.73,0.85,8.12,-25.66,-144.79
13.218708,0.4570,0.1079,0.9189,-4.64,3.17,-4.33,8.04,-25.54,-144.77
13.249286,0.4644,0.1211,0.9082,-10.99,-6.41,-2.56,7.92,-25.59,-144.89
13.249286,0.4731,0.1006,0.8857,-9.64,-7.57,7.69,7.68,-25.75,-144.85
13.278414,0.4429,0.1055,0.8848,-16.54,-13.49,7.63,7.37,-25.94,-144.64
13.278414,0.4580,0.1245,0.8818,-21.73,-13.55,-5.92,6.96,-26.23,-144.72
13.338350,0.4780,0.1211,0.8838,-12.94,-3.54,0.55,6.66,-26.35,-144.78
13.338350,0.4917,0.1260,0.8560,-13.61,5.92,7.39,6.38,-26.33,-144.72
13.368874,0.4482,0.1406,0.8691,-12.88,1.53,4.03,6.05,-26.27,-144.56
13.368874,0.4429,0.1235,0.8892,-9.89,-0.12,-0.67,5.81,-26.27,-144.53
13.398522,0.4375,0.1191,0.8921,-5.92,0.06,-0.92,5.66,-26.27,-144.55
13.398522,0.4312,0.1152,0.8857,-2.50,0.73,1.40,5.58,-26.27,-144.53
13.458400,0.4375,0.1108,0.8887,0.92,0.85,0.98,5.54,-26.26,-144.49
13.458400,0.4448,0.1240,0.8911,11.47,-1.16,-0.61,5.65,-26.25,-144.48
13.488297,0.4536,0.1187,0.8936,22.34,-5.62,-0.92,6.03,-26.33,-144.50
13.488297,0.4468,0.1279,0.8862,25.27,-11.29,1.53,6.51,-26.49,-144.52
13.518699,0.4326,0.1489,0.8721,25.76,-3.72,-0.85,7.03,-26.68,-144.50
13.518699,0.4399,0.1582,0.9199,32.10,6.29,4.46,7.61,-26.67,-144.50
13.579348,0.4268,0.1626,0.9312,43.88,11.66,12.08,8.27,-26.49,-144.24
13.579348,0.4463,0.1436,0.8877,39.92,10.38,13.06,8.98,-26.33,-143.89
13.608683,0.4707,0.1484,0.8496,35.34,6.65,9.16,9.60,-26.20,-143.61
13.608683,0.4683,0.1553,0.8105,23.86,2.62,3.60,10.13,-26.14,-143.43
13.638372,0.4785,0.1631,0.8247,10.93,1.53,-2.99,10.45,-26.10,-143.38
13.638372,0.4878,0.1616,0.8481,0.00,-3.05,-4.70,10.62,-26.10,-143.45
13.698431,0.4766,0.1475,0.8687,-6.47,-7.81,-6.71,10.58,-26.19,-143.57
13.698431,0.4487,0.1729,0.8687,-6.29,-9.52,-24.17,10.67,-26.31,-143.93
13.728352,0.4487,0.1270,0.8794,-11.23,-7.39,-31.01,10.79,-26.35,-144.60
13.728352,0.4580,0.1807,0.8677,-14.65,-7.57,-35.40,10.87,-26.37,-145.33
13.758567,0.4453,0.1914,0.8477,-19.90,-6.65,-27.77,10.82,-26.37,-146.04
13.758567,0.4185,0.2134,0.8530,-13.85,-9.40,-26.55,10.76,-26.38,-146.59
13.818910,0.4331,0.2280,0.8423,-12.88,-5.49,-21.24,10.72,-26.40,-147.12
13.818910,0.4385,0.2095,0.8662,-8.85,-5.25,-10.74,10.69,-26.43,-147.45
13.849203,0.4565,0.1987,0.8599,-7.45,-3.97,-9.40,10.63,-26.49,-147.68
13.849203,0.4526,0.1929,0.8672,-5.74,2.56,-8.00,10.59,-26.45,-147.83
13.878661,0.4565,0.1807,0.8779,-3.17,8.18,-7.63,10.55,-26.32,-147.96
13.878661,0.4302,0.1890,0.8711,-5.07,8.00,-7.45,10.53,-26.10,-148.06
13.938647,0.4468,0.1865,0.8853,-1.53,1.71,-7.20,10.55,-26.01,-148.21
13.938647,0.4424,0.1880,0.8726,-1.28,4.70,-2.14,10.54,-25.91,-148.26
13.968356,0.4351,0.1836,0.8647,-1.10,4.76,-1.22,10.52,-25.81,-148.21
13.968356,0.4458,0.1914,0.8667,0.00,1.83,-1.95,10.56,-25.79,-148.26
13.998589,0.4380,0.1885,0.8765,-1.34,2.38,0.18,10.54,-25.74,-148.23
13.998589,0.4399,0.1841,0.8789,-0.67,0.85,0.00,10.51,-25.72,-148.19
14.058594,0.4468,0.1792,0.8774,-0.49,1.16,0.06,10.50,-25.70,-148.17
14.058594,0.4443,0.1860,0.8740,-1.89,-0.55,-0.06,10.46,-25.70,-148.16
14.088437,0.4502,0.1787,0.8706,-0.67,0.85,0.00,10.45,-25.69,-148.14
14.088437,0.4492,0.1802,0.8813,-0.55,0.49,-0.85,10.44,-25.68,-148.11
14.118821,0.4487,0.1831,0.8701,-0.79,-0.12,-1.22,10.44,-25.67,-148.12
14.118821,0.4419,0.1821,0.8750,-0.18,0.43,-1.22,10.44,-25.66,-148.14
14.178612,0.4360,0.1860,0.8740,-0.98,0.12,-1.34,10.44,-25.65,-148.15
14.178612,0.4326,0.1870,0.8779,-1.34,-0.49,-1.53,10.43,-25.65,-148.16
14.208341,0.4355,0.1860,0.8804,-0.31,-1.89,-1.71,10.43,-25.67,-148.19
14.208341,0.4375,0.1870,0.8755,0.98,-1.83,-1.46,10.45,-25.70,-148.20
14.268852,0.4404,0.1846,0.8667,-1.40,-1.53,-1.16,10.48,-25.74,-148.23
14.268852,0.4419,0.1836,0.8662,0.49,-4.15,-2.44,10.49,-25.78,-148.22
14.298339,0.4424,0.1851,0.8672,-1.77,-2.87,-1.53,10.49,-25.85,-148.26
14.298339,0.4292,0.1968,0.8765,-0.37,-2.69,-0.73,10.48,-25.89,-148.26
14.328606,0.4194,0.1982,0.8774,1.46,-2.56,0.00,10.50,-25.96,-148.28
14.328606,0.4243,0.1963,0.8677,3.54,-2.14,0.98,10.56,-25.99,-148.28
14.388619,0.4263,0.1875,0.8418,-0.49,-7.81,3.23,10.56,-26.13,-148.28
14.388619,0.4458,0.1982,0.8452,-5.92,-9.28,4.52,10.50,-26.37,-148.21
14.418928,0.4668,0.1753,0.8599,-7.20,-3.78,1.83,10.33,-26.46,-148.14
14.418928,0.4683,0.1753,0.8721,-11.60,2.08,-1.34,10.15,-26.47,-148.11
14.476285,0.4595,0.1772,0.8813,-12.15,1.95,-3.66,9.93,-26.43,-148.12
14.476285,0.4570,0.1724,0.8833,-8.79,2.01,-6.59,9.74,-26.39,-148.17
14.508659,0.4497,0.1924,0.8843,-4.39,6.04,-9.52,9.75,-26.24,-148.35
14.508659,0.4556,0.1602,0.8931,2.81,3.66,-5.25,9.74,-26.14,-148.42
14.538605,0.4199,0.1929,0.9048,17.21,9.28,-8.79,10.04,-25.97,-148.52
14.538605,0.4229,0.1978,0.8911,25.70,12.76,-9.03,10.54,-25.74,-148.66
14.568656,0.4390,0.1855,0.8848,36.19,21.55,-0.37,11.19,-25.36,-148.69
14.568656,0.4219,0.2290,0.8687,40.47,27.53,9.77,11.88,-24.89,-148.47
14.629422,0.4414,0.1924,0.8662,41.02,22.40,20.81,12.50,-24.44,-148.01
14.629422,0.4595,0.2075,0.8779,38.33,15.87,15.08,13.05,-24.18,-147.51
14.658695,0.4424,0.2358,0.8906,34.73,16.36,6.77,13.69,-23.91,-147.24
14.658695,0.4180,0.2183,0.8784,26.73,5.55,3.30,14.20,-23.73,-147.11
14.689291,0.4038,0.2466,0.8652,26.00,4.94,-3.17,14.73,-23.64,-147.12
14.689291,0.3716,0.2681,0.8442,17.94,4.76,-11.23,15.23,-23.52,-147.27
14.749330,0.3765,0.2734,0.8540,7.87,3.42,-21.12,15.60,-23.31,-147.62
14.749330,0.3984,0.2666,0.8706,4.70,1.77,-24.90,15.91,-23.12,-148.15
14.778638,0.3994,0.2773,0.8672,9.64,3.36,-21.12,16.25,-22.94,-148.63
14.778638,0.3867,0.2856,0.8882,15.32,5.92,-22.09,16.67,-22.71,-149.10
14.809375,0.3643,0.3008,0.8608,9.22,0.79,-27.04,17.11,-22.49,-149.61
14.809375,0.3677,0.3032,0.8301,-0.12,-2.69,-33.14,17.45,-22.32,-150.28
14.871333,0.3379,0.3457,0.8179,-12.57,-2.14,-39.43,17.62,-22.16,-151.12
14.871333,0.3247,0.3521,0.7852,-22.28,-3.42,-35.89,17.61,-21.93,-151.98
14.899569,0.3706,0.3140,0.7852,-45.84,-15.75,-31.37,17.19,-21.93,-152.84
14.899569,0.4009,0.2744,0.8193,-54.87,-9.52,-24.29,16.43,-21.98,-153.56
14.928497,0.3921,0.2715,0.9023,-56.21,-6.41,-2.69,15.42,-22.08,-153.90
14.928497,0.3911,0.2603,0.9395,-47.00,-3.23,15.44,14.33,-22.23,-153.85
14.989372,0.3984,0.2378,0.9194,-22.28,7.75,29.91,13.45,-22.34,-153.37
14.989372,0.4258,0.2124,0.8833,2.99,29.24,43.40,12.94,-22.14,-152.54
15.018801,0.4385,0.2070,0.9077,-2.14,9.70,39.73,12.66,-21.97,-151.63
15.018801,0.3940,0.2051,0.9321,-6.53,12.76,45.29,12.12,-21.97,-150.72
15.049359,0.3730,0.1772,1.0010,6.10,27.53,56.46,11.63,-21.77,-149.53
15.049359,0.3931,0.1919,0.9658,28.63,32.23,57.37,11.55,-21.48,-148.25
15.109389,0.4116,0.1636,0.9111,20.57,36.56,56.76,11.53,-21.08,-146.96
15.109389,0.3901,0.1772,0.9106,24.23,27.40,48.71,11.57,-20.69,-145.76
15.139390,0.3633,0.2012,0.8945,4.39,15.08,43.52,11.51,-20.54,-144.82
15.139390,0.3730,0.2051,0.9185,-0.61,11.78,35.58,11.22,-20.49,-144.04
15.168642,0.3364,0.2075,0.9360,7.14,13.55,26.55,11.03,-20.39,-143.38
15.168642,0.3579,0.1860,0.9541,13.31,17.70,33.63,10.95,-20.19,-142.69
15.229383,0.3896,0.1699,0.9546,21.30,19.90,27.65,11.06,-19.95,-142.01
15.229383,0.4043,0.1680,0.9307,24.23,23.01,19.41,11.31,-19.63,-141.48
15.258633,0.4053,0.1855,0.8745,24.23,27.83,8.97,11.66,-19.19,-141.12
15.258633,0.3789,0.1948,0.8438,3.30,26.92,2.38,11.87,-18.67,-140.93
15.289372,0.3467,0.2002,0.8574,-6.53,21.36,6.47,11.73,-18.23,-140.83
15.289372,0.2910,0.2178,0.8999,-4.76,9.58,12.70,11.52,-17.96,-140.62
15.349371,0.2495,0.2251,0.9653,3.36,10.74,14.47,11.40,-17.85,-140.38
15.349371,0.2402,0.2432,0.9780,14.77,19.29,13.61,11.46,-17.62,-140.08
15.378566,0.2822,0.2358,0.9316,20.51,24.84,11.47,11.73,-17.27,-139.83
15.378566,0.3042,0.2231,0.8823,21.00,32.96,7.14,12.06,-16.73,-139.58
15.409384,0.2920,0.2349,0.8379,12.63,16.78,4.09,12.35,-16.25,-139.45
15.409384,0.2778,0.2290,0.8911,-1.04,0.67,4.33,12.40,-16.12,-139.46
15.469275,0.2476,0.2529,0.9497,5.25,-0.12,6.71,12.40,-16.19,-139.44
15.469275,0.2300,0.2505,0.9463,17.58,8.36,0.79,12.59,-16.06,-139.43
15.498491,0.2666,0.2456,0.9268,6.71,9.28,9.34,12.76,-15.89,-139.36
15.498491,0.2856,0.2495,0.9194,4.46,5.43,5.68,12.93,-15.85,-139.35
15.529228,0.2876,0.2363,0.9136,-6.23,2.87,9.34,12.82,-15.83,-139.27
15.529228,0.3198,0.2095,0.9360,-5.55,4.27,11.54,12.64,-15.81,-139.16
15.589308,0.2881,0.2310,0.9434,-8.48,2.44,13.55,12.41,-15.84,-139.00
15.589308,0.2471,0.2671,0.9521,-0.37,10.13,15.01,12.23,-15.80,-138.76
15.618799,0.2627,0.2324,0.9482,-2.14,20.87,21.79,12.11,-15.55,-138.43
15.618799,0.2764,0.1655,1.0044,-6.29,10.44,41.02,11.83,-15.42,-137.87
15.679704,0.2539,0.2017,0.9907,7.81,14.89,56.40,11.52,-15.44,-136.90
15.679704,0.2417,0.2178,0.9629,14.16,16.97,57.92,11.43,-15.37,-135.79
15.708457,0.2266,0.2310,0.9272,10.56,15.32,59.88,11.34,-15.32,-134.69
15.708457,0.2251,0.2388,0.9478,13.31,16.91,65.61,11.18,-15.32,-133.49
15.739201,0.2363,0.2427,0.9780,36.62,20.81,71.90,11.27,-15.25,-132.22
15.739201,0.2866,0.2241,0.9556,45.17,22.34,76.72,11.74,-15.14,-130.73
15.799293,0.2725,0.1909,0.9639,5.62,13.92,68.60,11.83,-15.13,-129.40
15.799293,0.2456,0.2227,0.9395,-28.99,8.36,90.21,11.09,-15.34,-127.72
15.828516,0.1836,0.3105,0.9028,8.97,16.66,56.03,10.34,-15.39,-126.19
15.828516,0.3110,0.1768,0.9287,8.85,9.52,45.23,10.37,-15.31,-125.10
15.859171,0.3672,0.0996,0.9268,-38.33,-1.40,46.14,9.83,-15.42,-124.12
15.859171,0.3555,0.1123,0.9409,-88.56,-8.18,54.26,8.22,-15.72,-122.96
15.920098,0.2744,0.1191,0.9844,-112.24,-9.58,51.57,5.86,-16.05,-121.82
15.920098,0.2305,0.1016,0.9771,-53.04,-3.60,32.17,3.92,-16.28,-120.89
15.948906,0.2549,0.0513,1.0601,-45.59,-5.37,34.79,2.82,-16.42,-120.10
15.948906,0.2954,-0.0244,1.0708,-40.71,1.28,37.54,1.71,-16.52,-119.21
15.979239,0.3208,-0.0723,1.0693,-11.96,5.98,39.31,0.95,-16.46,-118.27
15.979239,0.2710,-0.0063,1.0142,6.71,6.10,38.57,0.65,-16.37,-117.29
16.039285,0.3066,0.0522,0.9019,48.22,6.65,28.87,1.03,-16.26,-116.44
16.039285,0.3364,0.0566,0.8315,59.33,4.39,18.49,1.98,-16.17,-115.85
16.068576,0.3125,0.1064,0.8340,59.69,2.93,10.13,3.13,-16.12,-115.44
16.068576,0.2461,0.1553,0.9102,34.12,-3.17,8.30,4.06,-16.12,-115.16
16.099299,0.2173,0.1455,0.9585,14.10,-7.93,14.59,4.39,-16.27,-114.87
16.099299,0.2563,0.0977,1.0112,5.13,-8.61,21.24,4.45,-16.47,-114.42
16.159329,0.3169,0.0479,0.9727,9.89,-6.77,27.71,4.48,-16.67,-113.82
16.159329,0.3242,0.0811,0.9448,-12.76,-7.57,25.45,4.28,-16.88,-113.19
16.188719,0.2983,0.0464,0.9771,-15.44,-4.46,23.19,3.79,-17.03,-112.62
16.188719,0.3066,0.0811,0.9976,-9.58,-3.11,11.23,3.46,-17.17,-112.15
16.219609,0.3335,0.0088,0.9736,-9.64,0.18,-1.16,3.22,-17.17,-111.99
16.219609,0.3799,-0.0732,0.9409,16.78,4.64,3.54,3.25,-17.10,-111.90
16.279291,0.3682,-0.0034,0.9077,46.51,4.82,11.11,3.88,-17.01,-111.64
16.279291,0.3535,0.0908,0.8667,47.42,1.77,3.78,4.82,-16.97,-111.36
16.308567,0.3286,0.0967,0.9126,50.23,1.77,-1.22,5.78,-16.94,-111.26
16.308567,0.3101,0.1323,0.9580,43.09,-0.85,-4.27,6.75,-16.92,-111.26
16.339267,0.2729,0.2192,0.8906,38.88,-2.62,-6.23,7.57,-16.95,-111.31
16.339267,0.2930,0.2549,0.8169,45.72,-2.08,1.89,8.44,-17.00,-111.31
16.399331,0.2905,0.3066,0.7832,31.07,-2.81,3.42,9.21,-17.05,-111.20
16.399331,0.3071,0.2876,0.7998,13.55,0.06,6.41,9.61,-17.10,-111.06
16.428581,0.2969,0.2729,0.8579,4.46,2.62,8.79,9.72,-17.10,-110.82
16.428581,0.2900,0.2803,0.8667,5.68,2.75,1.59,9.75,-17.07,-110.65
16.459282,0.3320,0.2222,0.8545,2.50,4.39,-1.16,9.85,-17.01,-110.59
16.459282,0.3413,0.1948,0.8604,9.70,14.22,3.17,9.93,-16.83,-110.49
16.549470,0.3130,0.1973,0.9033,34.12,24.66,7.02,10.35,-16.45,-110.24
16.549470,0.2944,0.2139,0.9224,26.98,20.51,2.56,10.94,-16.01,-110.00
16.551442,0.2646,0.2188,0.9463,-6.96,9.95,-0.55,11.12,-15.73,-109.89
16.551442,0.2778,0.2319,0.9351,-26.25,5.43,-2.69,10.74,-15.58,-109.83
16.579066,0.3110,0.1611,0.9487,-31.68,5.25,-6.84,10.16,-15.46,-109.89
16.579066,0.2988,0.1509,0.9502,-35.16,5.98,-6.84,9.54,-15.32,-109.95
16.639309,0.2744,0.1724,0.9321,-40.04,5.62,-4.52,8.82,-15.19,-110.00
16.639309,0.2930,0.1748,0.8999,-46.69,6.59,-2.20,7.97,-15.06,-109.99
16.668533,0.2764,0.1401,0.9185,-58.59,8.30,-0.85,6.89,-14.91,-109.95
16.668533,0.2500,0.0913,0.9829,-49.74,12.51,7.45,5.76,-14.71,-109.78
16.699285,0.2510,0.0908,1.0122,-37.60,9.83,7.14,4.86,-14.50,-109.52
16.699285,0.2822,0.0605,0.9746,-35.22,7.63,0.00,4.10,-14.34,-109.37
16.759248,0.2861,0.0449,0.9536,-37.17,7.02,-3.72,3.42,-14.19,-109.31
16.759248,0.2554,0.0469,0.9819,-37.72,5.80,-7.57,2.68,-14.05,-109.35
16.788463,0.2397,0.0444,0.9917,-37.48,4.15,-7.81,1.94,-13.95,-109.42
16.788463,0.2231,0.0278,1.0112,-25.09,5.37,-1.28,1.36,-13.84,-109.41
16.819703,0.2280,0.0571,0.9907,-20.51,4.70,1.89,0.91,-13.74,-109.29
16.819703,0.2510,0.0454,0.9497,-8.73,5.55,0.43,0.63,-13.65,-109.17
16.879236,0.2524,0.0469,0.9429,-9.77,4.27,-3.54,0.46,-13.55,-109.07
16.879236,0.2329,0.0347,0.9868,-9.52,2.14,-8.91,0.31,-13.47,-109.08
16.908445,0.2393,0.0249,0.9780,-16.60,-0.43,-12.70,0.11,-13.46,-109.22
16.908445,0.2622,0.0151,0.9312,-25.45,0.73,-9.64,-0.25,-13.45,-109.34
16.939175,0.2637,0.0366,0.9131,-34.91,2.50,-6.96,-0.84,-13.41,-109.39
16.939175,0.2480,0.0332,0.9287,-41.38,3.66,-7.69,-1.58,-13.36,-109.42
16.999386,0.2285,0.0225,0.9497,-33.08,8.91,-1.71,-2.29,-13.23,-109.36
16.999386,0.2168,-0.0093,0.9873,-18.55,13.67,1.83,-2.84,-13.00,-109.22
17.028538,0.2236,-0.0088,0.9722,-3.72,17.03,5.80,-3.03,-12.68,-108.94
17.028538,0.2397,-0.0308,0.9463,5.19,20.69,9.46,-3.10,-12.31,-108.68
17.088602,0.2261,-0.0020,0.9507,14.71,22.22,10.86,-2.89,-11.87,-108.29
17.088602,0.2388,0.0225,0.8711,10.38,26.86,13.61,-2.66,-11.39,-107.91
17.119545,0.2046,0.0542,0.8809,-3.36,30.09,22.28,-2.62,-10.79,-107.37
17.119545,0.1250,0.0713,0.9585,-45.23,26.55,20.57,-3.27,-10.22,-106.79
17.148503,0.1533,0.0083,0.9409,-60.42,29.05,32.35,-4.45,-9.65,-106.07
17.148503,0.2100,-0.1162,0.9263,-54.93,37.48,41.93,-5.76,-8.95,-105.13
17.209430,0.2173,-0.1768,0.9180,-13.67,49.01,58.29,-6.63,-7.98,-103.97
17.209430,0.1084,-0.1406,1.0449,7.14,48.40,60.49,-6.77,-6.87,-102.57
17.238510,0.0503,-0.1074,1.1050,18.01,32.84,51.76,-6.68,-5.97,-101.23
17.238510,0.0967,-0.2153,1.0986,4.46,27.22,36.38,-6.50,-5.31,-100.20
17.269280,0.0776,-0.1641,1.0894,-1.89,20.45,27.40,-6.56,-4.78,-99.34
17.269280,0.0962,-0.1367,0.9810,5.19,24.72,35.64,-6.58,-4.29,-98.49
17.329748,0.0664,-0.0552,0.9595,11.29,27.65,46.51,-6.44,-3.68,-97.42
17.329748,0.0894,-0.0679,0.9658,12.88,28.26,45.96,-6.27,-3.05,-96.26
17.358617,0.0781,-0.0762,0.9834,32.35,29.30,46.39,-5.89,-2.40,-95.10
17.358617,0.0190,-0.0850,1.0508,32.90,24.78,36.25,-5.22,-1.78,-94.05
17.389347,-0.0225,-0.0312,1.0498,20.75,16.91,28.75,-4.75,-1.35,-93.19
17.389347,-0.0044,-0.0376,1.0483,25.88,16.91,31.62,-4.31,-0.96,-92.30
17.449536,0.0073,-0.0312,1.0181,23.19,13.24,27.10,-3.85,-0.64,-91.50
17.449536,0.0454,-0.0889,0.9463,43.52,20.75,40.65,-3.25,-0.27,-90.60
17.478616,0.0469,-0.1162,1.0229,19.23,21.79,38.88,-2.64,0.20,-89.54
17.478616,-0.0010,-0.0327,0.9932,9.34,19.84,37.96,-2.41,0.64,-88.53
17.509293,-0.0200,0.0000,1.0000,5.80,13.79,37.72,-2.26,0.99,-87.51
17.509293,-0.0020,-0.0063,0.9858,14.83,11.47,38.02,-2.11,1.24,-86.50
17.569286,-0.0088,0.0220,0.9995,24.78,10.01,33.20,-1.66,1.48,-85.49
17.569286,-0.0049,0.1401,0.9028,36.01,-3.66,25.82,-1.07,1.52,-84.66
17.598466,-0.0830,0.1455,1.0049,-5.43,7.08,28.50,-0.82,1.66,-83.78
17.598466,-0.0542,0.0654,1.0420,-37.96,8.12,35.34,-1.26,1.80,-82.89
17.629215,-0.0596,0.0474,1.1108,-36.19,1.40,28.20,-1.95,1.90,-81.96
17.629215,-0.0303,-0.0039,1.0537,-50.11,-2.08,19.71,-2.83,1.89,-81.25
17.689332,-0.0049,-0.0698,1.0059,-49.93,0.00,11.90,-3.85,1.87,-80.69
17.689332,0.0000,-0.1299,0.9795,-23.99,6.77,13.73,-4.63,1.96,-80.23
17.718782,-0.0151,-0.0898,0.9629,-9.70,8.48,16.30,-4.89,2.15,-79.69
17.718782,-0.0098,-0.0757,0.9766,-9.58,10.25,16.05,-5.06,2.35,-79.14
17.749234,-0.0190,-0.0674,0.9858,-13.12,17.03,15.75,-5.31,2.65,-78.60
17.749234,-0.0396,-0.0483,1.0112,-11.35,14.59,13.18,-5.54,3.00,-78.09
17.809419,-0.0220,-0.0435,1.0142,-13.61,18.43,12.76,-5.78,3.33,-77.61
17.809419,-0.0425,-0.0547,1.0034,-14.83,33.87,15.26,-6.05,3.88,-77.14
17.838624,-0.0610,-0.0757,0.9937,-10.31,34.73,22.46,-6.29,4.64,-76.59
17.838624,0.0181,0.0493,1.0498,-10.31,51.03,34.36,-6.43,5.36,-75.89
17.869287,0.0498,0.0239,1.1309,13.55,94.54,57.13,-6.27,7.02,-74.70
17.869287,-0.2393,-0.2188,0.8198,1.71,13.67,-12.33,-5.84,8.44,-74.32
17.929498,-0.2310,-0.0752,0.9453,-22.40,6.71,-24.96,-6.26,8.56,-74.71
17.929498,-0.1660,-0.1040,0.9668,-30.21,16.17,-18.80,-6.79,8.77,-74.84
17.958630,-0.1553,-0.1035,0.9756,-30.82,0.31,-3.97,-7.48,8.95,-74.86
17.958630,-0.1548,-0.1138,1.0273,-15.08,-23.07,2.14,-7.93,8.73,-74.59
17.989231,-0.1299,-0.1050,1.0610,-7.69,-45.29,11.66,-8.09,8.03,-74.14
17.989231,-0.0586,-0.0664,1.1245,-10.86,-45.84,38.64,-8.28,7.13,-73.31
18.049330,0.0010,-0.0669,1.1650,5.74,-57.56,56.27,-8.21,6.20,-71.92
18.049330,0.0332,-0.0693,1.1646,12.94,-48.71,37.17,-7.90,5.27,-70.65
18.078574,0.0205,-0.0088,1.1689,22.58,-36.87,17.58,-7.53,4.43,-69.80
18.078574,0.0190,-0.0420,1.0908,30.27,-16.54,1.59,-6.94,3.93,-69.35
18.109046,0.0078,-0.0088,1.0986,31.13,-12.45,-5.31,-6.33,3.64,-69.16
18.109046,-0.0234,0.0000,1.0986,35.52,-2.87,-11.78,-5.67,3.47,-69.14
18.169339,-0.0454,-0.0205,1.0293,38.88,3.30,-14.83,-4.93,3.47,-69.19
18.169339,-0.0659,-0.0435,0.9268,37.35,5.98,-12.63,-4.17,3.57,-69.27
18.198591,-0.1079,-0.0493,0.8530,30.52,-0.67,-2.14,-3.50,3.61,-69.22
18.198591,-0.1401,-0.0581,0.7720,23.44,-11.23,-0.61,-2.96,3.54,-69.03
18.229317,-0.1313,-0.0220,0.7764,16.24,-31.13,3.66,-2.57,3.05,-68.81
18.229317,-0.1245,0.0000,0.8369,11.41,-25.27,4.64,-2.29,2.46,-68.49
18.289397,-0.1333,-0.0190,0.8145,5.92,-16.66,6.90,-2.11,2.08,-68.17
18.289397,-0.0928,-0.0229,0.8276,0.49,-16.97,7.57,-2.05,1.75,-67.85
18.318933,-0.0581,-0.0317,0.8589,-1.83,-13.67,9.22,-2.05,1.43,-67.46
18.318933,-0.0249,-0.0469,0.8784,-6.41,-4.03,5.62,-2.14,1.25,-67.10
18.349476,-0.0459,-0.0649,0.8828,-9.03,-1.40,7.75,-2.29,1.25,-66.80
18.349476,-0.0376,-0.0718,0.9419,-11.96,-11.60,11.84,-2.50,1.08,-66.38
18.409421,-0.0190,-0.0762,0.9922,-12.15,-6.59,14.53,-2.74,0.88,-65.91
18.409421,0.0054,-0.0913,0.9849,-14.77,3.23,9.95,-3.01,0.88,-65.47
18.438489,0.0239,-0.0845,1.0278,-14.28,6.04,10.68,-3.30,1.00,-65.07
18.438489,0.0679,-0.0835,1.0884,-14.10,0.18,16.11,-3.58,1.08,-64.62
18.499373,0.0771,-0.0400,1.2139,-12.76,0.06,22.95,-3.86,1.09,-64.04
18.499373,0.0708,-0.0044,1.3550,-9.34,5.55,24.66,-4.06,1.15,-63.36
18.528503,0.1226,0.0225,1.4575,-11.47,8.42,24.41,-4.28,1.37,-62.69
18.528503,0.1831,0.0684,1.5796,-5.31,-5.13,26.73,-4.42,1.44,-62.01
18.559385,0.1694,0.1519,1.7510,0.06,-17.88,26.55,-4.47,1.20,-61.28
18.559385,0.1201,0.1260,1.8110,10.50,-13.98,22.52,-4.36,0.87,-60.60
18.619559,0.0542,0.0591,1.7764,13.73,7.08,11.90,-4.09,0.83,-60.11
18.619559,0.0557,-0.0254,1.6611,25.82,-1.77,11.35,-3.67,0.93,-59.76
18.648566,0.0229,-0.0210,1.6294,29.97,-6.41,-0.06,-3.09,0.83,-59.51
18.648566,0.0205,-0.0264,1.5884,32.71,2.14,-12.76,-2.46,0.78,-59.54
18.679341,-0.0366,-0.0317,1.4487,24.17,-4.15,-10.44,-1.88,0.81,-59.69
18.679341,-0.0522,-0.0581,1.3623,32.71,-29.05,-5.68,-1.33,0.42,-59.73
18.739337,-0.0972,-0.0664,1.2671,27.40,-33.20,-20.69,-0.68,-0.23,-59.86
18.739337,-0.1299,-0.0674,1.1455,-10.86,-29.79,-33.51,-0.41,-0.84,-60.39
18.768530,-0.1436,-0.0884,1.0947,-15.87,-48.16,-23.56,-0.78,-1.60,-60.88
18.768530,-0.1089,-0.0981,1.0493,7.02,-46.63,-21.73,-0.83,-2.59,-61.23
18.799269,-0.0742,-0.1113,0.9629,33.33,-27.10,-31.01,-0.38,-3.32,-61.70
18.799269,-0.0386,-0.1289,0.8271,56.03,-22.77,-28.08,0.62,-3.75,-62.24
18.859328,-0.0264,-0.1211,0.7344,70.92,-30.33,-25.33,1.93,-4.29,-62.74
18.859328,-0.0269,-0.1157,0.6548,97.05,-25.02,-19.96,3.63,-4.81,-63.15
18.888713,-0.0400,-0.1011,0.5303,113.77,-41.99,-12.39,5.86,-5.44,-63.47
18.888713,-0.0459,-0.0713,0.5176,109.01,-33.26,-5.31,8.13,-6.21,-63.67
18.919469,-0.0537,-0.0312,0.4878,100.04,-14.34,-9.34,10.24,-6.60,-63.84
18.919469,-0.0220,0.0142,0.4546,92.96,-1.77,-9.58,12.21,-6.71,-63.98
18.979414,0.0166,0.0498,0.3667,83.13,-3.11,-7.32,13.99,-6.70,-64.07
18.979414,0.0474,0.0898,0.2866,68.18,-15.38,1.53,15.52,-6.89,-64.13
19.008577,0.0591,0.1382,0.3164,50.29,-15.99,5.80,16.69,-7.22,-64.07
19.008577,0.1074,0.1885,0.3931,39.06,-10.93,4.64,17.56,-7.50,-64.00
19.039190,0.1348,0.2344,0.4624,34.55,-12.15,5.74,18.28,-7.77,-63.91
19.039190,0.1772,0.2632,0.4595,34.06,5.19,5.74,18.96,-7.91,-63.79
19.099329,0.1963,0.2686,0.3276,26.18,32.04,5.62,19.54,-7.58,-63.46
19.099329,0.2192,0.2910,0.2446,7.02,35.71,1.59,19.82,-6.94,-63.03
19.128577,0.2358,0.3257,0.2490,-11.05,33.51,-0.49,19.73,-6.28,-62.68
19.128577,0.2676,0.3359,0.3008,-27.89,25.09,-1.10,19.30,-5.73,-62.35
19.159276,0.2246,0.3501,0.4253,-36.93,8.85,-0.67,18.62,-5.42,-62.08
19.159276,0.1855,0.3311,0.5552,-39.55,11.66,1.59,17.85,-5.28,-61.89
19.220614,0.1436,0.3032,0.5977,-43.40,41.38,1.04,17.00,-4.80,-61.54
19.220614,0.1313,0.2720,0.5649,-48.83,52.06,-0.24,16.05,-3.86,-61.04
19.248615,0.1162,0.2529,0.6060,-52.43,45.47,-1.83,15.01,-2.93,-60.61
19.248615,0.0854,0.2109,0.6172,-55.24,53.28,-5.92,13.93,-1.95,-60.22
19.279370,0.0034,0.1973,0.6968,-56.21,61.10,-13.55,12.80,-0.81,-59.94
19.279370,-0.0630,0.1938,0.7456,-52.37,73.73,-18.25,11.72,0.57,-59.72
19.339343,-0.0581,0.1152,0.6094,-53.47,80.02,-18.13,10.69,2.23,-59.50
19.339343,-0.1025,0.0957,0.7095,-65.55,49.56,-20.81,9.48,3.57,-59.40
19.368571,-0.1626,0.1147,0.9209,-60.85,45.65,-22.71,8.18,4.52,-59.47
19.368571,-0.1758,0.0698,0.8521,-57.13,56.40,-24.41,7.00,5.66,-59.53
19.399756,-0.1567,0.0762,0.9390,-58.29,24.41,-25.45,5.80,6.53,-59.70
19.399756,-0.2007,0.0596,1.0210,-48.16,2.32,-25.27,4.69,6.84,-59.95
19.459280,-0.2720,0.0000,0.9883,-44.68,-11.60,-18.98,3.75,6.72,-60.19
19.459280,-0.2852,-0.0308,1.0469,-53.16,5.62,-18.07,2.73,6.67,-60.34
19.488547,-0.1899,-0.0425,1.1436,-55.30,25.27,-15.87,1.60,7.04,-60.47
19.488547,-0.1572,-0.0581,1.2266,-54.50,11.84,-4.76,0.48,7.47,-60.46
19.519495,-0.2256,-0.0557,1.3682,-46.69,-5.07,11.17,-0.53,7.46,-60.14
19.519495,-0.2617,-0.0942,1.3608,-41.56,11.72,19.04,-1.36,7.54,-59.62
19.579375,-0.2402,-0.0825,1.3994,-42.05,5.98,12.82,-2.15,7.75,-59.09
19.579375,-0.1704,-0.0278,1.5083,-33.45,-7.87,8.97,-2.90,7.71,-58.68
19.608501,-0.1973,-0.0312,1.4707,-18.25,-4.33,10.62,-3.38,7.57,-58.28
19.608501,-0.2017,-0.0649,1.2944,-14.89,6.16,6.71,-3.66,7.64,-57.93
19.639250,-0.1665,-0.0762,1.2178,-20.45,-19.53,7.57,-4.00,7.52,-57.61
19.639250,-0.1460,-0.0444,1.3638,-19.53,-28.08,10.56,-4.39,7.01,-57.21
19.699241,-0.1367,-0.0176,1.4326,-9.89,-9.03,6.96,-4.67,6.65,-56.84
19.699241,-0.1006,-0.0347,1.2993,2.44,3.91,7.63,-4.71,6.66,-56.53
19.728454,-0.0825,-0.0522,1.1826,5.68,-7.39,12.39,-4.59,6.65,-56.16
19.728454,-0.0898,-0.0278,1.2021,7.32,-8.54,13.55,-4.43,6.45,-55.70
19.759314,-0.0713,-0.0278,1.1372,9.52,-0.24,11.78,-4.22,6.40,-55.28
19.759314,-0.0596,-0.0322,1.0542,6.71,-10.13,9.46,-4.04,6.34,-54.90
19.819653,-0.0840,-0.0557,1.0439,2.93,-18.80,11.17,-3.91,6.04,-54.51
19.819653,-0.0781,-0.0591,1.0527,-2.56,-11.78,6.71,-3.90,5.72,-54.16
19.848677,-0.0679,-0.0513,1.0449,-6.77,-2.20,4.76,-3.99,5.59,-53.88
19.848677,-0.0557,-0.0371,1.0503,-9.70,1.53,2.87,-4.15,5.62,-53.64
19.909455,-0.0439,-0.0088,1.0986,-6.47,3.05,0.37,-4.31,5.65,-53.44
19.909455,-0.0527,-0.0117,1.0933,-2.56,8.73,-3.17,-4.40,5.77,-53.32
19.938539,-0.0747,-0.0161,1.0898,0.00,16.24,-7.39,-4.43,6.03,-53.28
19.938539,-0.0869,-0.0132,1.0981,3.78,20.75,-9.89,-4.41,6.39,-53.32
19.969273,-0.1040,-0.0254,1.0664,6.77,23.62,-9.46,-4.31,6.83,-53.39
19.969273,-0.1313,-0.0288,1.0356,7.51,27.59,-9.52,-4.19,7.33,-53.44
20.029406,-0.1475,-0.0371,0.9883,6.23,20.45,-7.32,-4.06,7.83,-53.48
20.029406,-0.1533,-0.0386,0.9824,3.97,8.24,-4.15,-3.97,8.10,-53.45
20.058541,-0.1431,-0.0435,0.9663,0.43,-7.26,0.00,-3.93,8.11,-53.36
20.058541,-0.1323,-0.0376,1.0068,-2.38,-19.04,3.91,-3.94,7.80,-53.14
20.088680,-0.1348,-0.0298,1.0752,-1.10,-14.16,3.17,-3.98,7.46,-52.90
20.088680,-0.1270,-0.0317,1.0791,1.59,-5.37,3.11,-3.95,7.28,-52.68
20.149302,-0.1235,-0.0327,1.0850,1.95,-0.92,1.95,-3.91,7.22,-52.49
20.149302,-0.1338,-0.0371,1.1021,2.32,3.17,2.75,-3.85,7.26,-52.32
20.180649,-0.1538,-0.0474,1.1074,2.32,4.82,5.92,-3.78,7.34,-52.10
20.180649,-0.1489,-0.0498,1.1309,-0.85,-1.28,11.23,-3.75,7.39,-51.80
20.209415,-0.1401,-0.0444,1.2178,-3.11,-3.85,15.38,-3.76,7.34,-51.40
20.209415,-0.1333,-0.0527,1.2959,-3.78,-7.20,20.81,-3.79,7.23,-50.91
20.269370,-0.1235,-0.0459,1.3467,-6.16,2.01,23.07,-3.83,7.20,-50.35
20.269370,-0.0815,-0.0483,1.3838,-6.96,13.49,19.84,-3.91,7.38,-49.84
20.298569,-0.0815,-0.0308,1.4316,-6.35,9.77,22.46,-4.00,7.66,-49.35
20.298569,-0.0542,-0.0112,1.5107,0.18,6.53,21.12,-4.01,7.84,-48.83
20.329407,-0.0156,-0.0024,1.5142,8.79,-2.20,15.08,-3.87,7.90,-48.42
20.329407,-0.0269,0.0156,1.4800,17.21,-10.31,11.35,-3.56,7.77,-48.09
20.389413,-0.0298,-0.0020,1.4131,19.84,-5.98,5.86,-3.15,7.61,-47.88
20.389413,-0.0601,-0.0034,1.3511,18.80,-18.86,10.31,-2.74,7.40,-47.69
20.418961,-0.1548,0.0210,1.4414,24.90,-38.21,14.65,-2.29,6.78,-47.40
20.418961,-0.1343,0.0308,1.5063,39.92,-15.14,6.04,-1.60,6.22,-47.15
20.449454,-0.1230,0.0015,1.3667,22.64,0.73,-4.76,-0.90,6.14,-47.14
20.449454,-0.1626,-0.0083,1.2896,21.55,3.85,-22.46,-0.56,6.16,-47.44
20.509223,-0.2271,-0.0049,1.2090,29.24,5.68,-22.16,-0.08,6.28,-47.92
20.509223,-0.2988,-0.0029,1.0938,20.94,6.59,-6.10,0.42,6.43,-48.22
20.538596,-0.2959,-0.0430,0.9204,2.14,-12.63,9.09,0.66,6.37,-48.15
20.538596,-0.2158,-0.0303,0.8750,0.61,-28.44,4.58,0.68,5.93,-48.02
20.569346,-0.2856,-0.0107,0.8750,-1.04,-37.54,0.43,0.68,5.26,-48.01
20.569346,-0.2871,-0.0215,0.9380,14.53,-36.87,-5.62,0.77,4.48,-48.09
20.629352,-0.2100,-0.0376,0.9360,41.08,-29.66,-20.94,1.33,3.81,-48.39
20.629352,-0.1709,-0.0420,0.8203,49.74,-22.83,-29.60,2.23,3.32,-48.94
20.659660,-0.1475,-0.0239,0.7261,45.78,-23.80,-30.70,3.18,2.89,-49.60
20.659660,-0.1245,-0.0088,0.7012,44.80,-19.41,-24.54,4.06,2.52,-50.18
20.688998,-0.1372,0.0151,0.6826,46.81,-26.55,-15.75,4.94,2.14,-50.60
20.688998,-0.1245,0.0190,0.7695,57.98,-29.42,-9.83,6.03,1.59,-50.91
20.749324,-0.1240,0.0195,0.7979,66.04,-18.86,-3.23,7.26,1.12,-51.10
20.749324,-0.0645,0.0391,0.7109,57.62,-4.21,0.92,8.50,0.91,-51.11
20.778524,-0.0249,0.0801,0.6035,41.63,-3.72,-4.82,9.52,0.88,-51.13
20.778524,-0.0024,0.1206,0.5757,30.40,-8.85,-2.99,10.23,0.76,-51.22
20.809432,0.0391,0.1562,0.5400,19.90,-6.65,2.01,10.70,0.60,-51.20
20.809432,0.0679,0.1885,0.5254,26.98,-9.64,2.87,11.15,0.46,-51.12
20.869307,0.1147,0.1973,0.5317,28.75,-9.09,1.89,11.74,0.24,-51.06
20.869307,0.1504,0.2285,0.5073,24.41,-12.21,-1.04,12.27,0.05,-51.03
20.898660,0.1079,0.2534,0.5063,22.09,-29.48,-5.80,12.73,-0.34,-51.14
20.898660,0.0967,0.2500,0.5425,18.86,-25.88,-5.68,13.15,-0.92,-51.37
20.929370,0.1426,0.2622,0.4683,12.02,2.14,-2.32,13.47,-1.07,-51.41
20.929370,0.1963,0.2896,0.3960,2.20,4.21,-2.08,13.62,-0.97,-51.33
20.989356,0.1787,0.2930,0.4146,-6.59,-14.34,-5.07,13.57,-1.04,-51.34
20.989356,0.1270,0.2646,0.5083,-12.76,-19.47,-5.00,13.37,-1.41,-51.47
21.019536,0.1104,0.2466,0.5767,-12.76,-0.18,1.89,13.11,-1.60,-51.46
21.019536,0.1270,0.2427,0.5479,-17.03,15.81,3.72,12.82,-1.45,-51.25
21.048566,0.1470,0.2300,0.5605,-24.35,19.71,1.28,12.40,-1.10,-51.02
21.048566,0.1152,0.2158,0.5972,-29.24,13.98,-0.06,11.85,-0.76,-50.80
21.109571,0.0806,0.1973,0.6240,-31.98,11.66,0.18,11.24,-0.53,-50.64
21.109571,-0.0210,0.1807,0.6772,-34.91,-0.79,-0.73,10.57,-0.44,-50.49
21.139253,0.0000,0.1558,0.7603,-36.19,30.58,5.07,9.87,-0.22,-50.30
21.139253,0.0483,0.1792,0.6753,-43.95,43.82,3.05,9.07,0.63,-49.90
21.169218,0.0439,0.1548,0.7251,-43.82,27.59,-4.21,8.18,1.31,-49.67
21.169218,0.0322,0.1309,0.7764,-41.63,9.46,-8.61,7.34,1.71,-49.63
21.229404,-0.0439,0.1250,0.7622,-41.20,-10.07,-11.60,6.51,1.69,-49.71
21.229404,-0.1538,0.0908,0.7017,-46.51,-42.36,-3.23,5.64,1.20,-49.81
21.258519,-0.1519,0.0078,0.8862,-51.39,-46.51,14.53,4.66,0.18,-49.68
21.258519,-0.1060,-0.0176,1.0308,-44.86,34.48,14.04,3.72,0.04,-49.26
21.319547,-0.1538,0.0010,1.0103,-49.62,57.43,18.49,2.76,1.04,-48.74
21.319547,-0.1211,-0.0049,1.0015,-44.49,61.95,17.88,1.87,2.26,-48.14
21.348479,-0.1230,0.0024,1.0947,-39.00,63.78,18.43,1.03,3.49,-47.61
21.348479,-0.1382,-0.0010,1.2075,-30.27,60.24,17.09,0.37,4.71,-47.07
21.379280,-0.1152,0.0000,1.2485,-24.11,68.73,12.82,-0.13,5.97,-46.63
21.379280,-0.1270,-0.0010,1.1870,-25.27,87.77,12.76,-0.59,7.51,-46.21
21.439300,-0.1318,-0.0005,1.1382,-25.27,100.34,8.48,-1.06,9.45,-45.86
21.439300,-0.1167,0.0127,1.0981,-22.16,83.19,2.01,-1.52,11.32,-45.63
21.468477,-0.1519,0.0044,1.0229,-18.92,49.44,-1.28,-1.91,12.65,-45.52
21.468477,-0.2017,-0.0151,1.0508,-20.32,13.67,-2.75,-2.31,13.19,-45.46
21.499255,-0.2026,-0.0322,1.0928,-21.61,5.62,-4.09,-2.75,13.40,-45.41
21.499255,-0.1504,-0.0273,1.1128,-17.94,-8.18,-12.51,-3.18,13.37,-45.46
21.559434,-0.2114,-0.0410,1.0747,-11.96,-26.55,-17.03,-3.54,12.97,-45.66
21.559434,-0.2715,-0.0703,1.0137,-15.32,-14.65,-14.34,-3.85,12.50,-45.85
21.588609,-0.2754,-0.0835,1.0161,-23.68,-7.32,-15.14,-4.31,12.30,-46.05
21.588609,-0.3188,-0.0923,1.0713,-24.72,-9.70,-10.56,-4.84,12.13,-46.20
21.619532,-0.3179,-0.0957,1.1079,-24.29,24.78,-8.12,-5.37,12.21,-46.30
21.619532,-0.2852,-0.0962,1.0063,-28.75,52.43,-6.96,-5.94,13.07,-46.42
21.679197,-0.2949,-0.0942,0.9966,-30.33,31.31,-4.27,-6.58,13.95,-46.51
21.679197,-0.3213,-0.1216,1.0210,-28.08,-6.29,2.69,-7.17,14.19,-46.47
21.708481,-0.3120,-0.1460,1.1548,-24.84,-34.06,9.40,-7.65,13.73,-46.18
21.708481,-0.2925,-0.1494,1.2686,-17.64,-27.10,10.74,-8.07,12.99,-45.78
21.739233,-0.2378,-0.1377,1.2002,-12.57,-1.22,5.25,-8.32,12.81,-45.52
21.739233,-0.2334,-0.1392,1.1245,-12.70,-16.54,5.13,-8.54,12.67,-45.32
21.799288,-0.2236,-0.1387,1.1763,-14.28,-13.98,3.78,-8.79,12.33,-45.11
21.799288,-0.1973,-0.1338,1.1641,-12.33,1.16,4.03,-9.03,12.23,-44.95
21.828593,-0.2046,-0.1353,1.1084,-8.54,2.44,2.93,-9.22,12.29,-44.81
21.828593,-0.2139,-0.1553,0.9819,-12.63,-9.28,2.93,-9.37,12.30,-44.69
21.859280,-0.2554,-0.1616,0.9258,-11.54,-11.72,7.69,-9.60,12.02,-44.46
21.859280,-0.2739,-0.1641,0.9497,-15.81,-16.91,6.77,-9.84,11.78,-44.21
21.919501,-0.2549,-0.1841,0.9878,-21.67,-33.94,9.34,-10.12,11.35,-43.91
21.919501,-0.2432,-0.1655,1.0176,-11.47,-25.09,15.38,-10.37,10.72,-43.46
21.949658,-0.2334,-0.1519,1.0098,-17.76,-16.60,17.82,-10.66,10.34,-43.02
21.949658,-0.1680,-0.1665,1.0449,-26.00,-18.74,18.31,-10.98,10.18,-42.59
21.978970,-0.1519,-0.1489,1.1426,-14.53,-15.87,24.90,-11.28,9.93,-42.03
21.978970,-0.1235,-0.1626,1.2383,8.48,2.69,24.84,-11.21,9.88,-41.45
22.039254,-0.1123,-0.1558,1.2266,3.23,25.57,18.49,-11.03,10.25,-41.01
22.039254,-0.0996,-0.1514,1.1743,3.05,32.17,13.31,-10.94,10.91,-40.77
22.068624,-0.0981,-0.1475,1.1724,5.98,22.95,13.61,-10.81,11.49,-40.55
22.068624,-0.1411,-0.1460,1.1885,8.61,15.87,14.95,-10.61,11.93,-40.28
22.099406,-0.1714,-0.1519,1.2144,11.78,12.88,10.38,-10.37,12.25,-40.02
22.099406,-0.1860,-0.1553,1.1958,15.87,15.50,8.48,-10.06,12.54,-39.85
22.159427,-0.2212,-0.1504,1.1484,20.26,17.40,15.01,-9.64,12.93,-39.63
22.159427,-0.2549,-0.1509,1.1367,18.07,2.69,16.54,-9.18,13.20,-39.30
22.189311,-0.2520,-0.1475,1.1558,15.50,-11.84,16.91,-8.76,13.12,-38.92
22.189311,-0.2466,-0.1431,1.1426,11.60,-29.48,15.38,-8.40,12.77,-38.51
22.219771,-0.2349,-0.1367,1.1938,9.70,-42.72,13.00,-8.12,12.05,-38.11
22.219771,-0.2134,-0.1362,1.2202,10.93,-44.98,10.80,-7.85,11.18,-37.76
22.279361,-0.1777,-0.1279,1.1963,10.86,-40.89,9.83,-7.57,10.37,-37.45
22.279361,-0.1528,-0.1094,1.2056,9.77,-39.43,12.45,-7.31,9.58,-37.13
22.308612,-0.1323,-0.1060,1.2314,6.53,-42.48,17.46,-7.09,8.79,-36.75
22.308612,-0.1162,-0.0967,1.2891,10.62,-37.41,24.72,-6.85,8.04,-36.24
22.339323,-0.1167,-0.0967,1.2627,10.44,-36.25,20.75,-6.56,7.37,-35.71
22.339323,-0.0986,-0.0962,1.2759,10.19,-42.85,19.04,-6.31,6.60,-35.26
22.399284,-0.0923,-0.0957,1.2959,12.15,-37.96,20.39,-6.03,5.82,-34.80
22.399284,-0.1118,-0.0928,1.2876,10.86,-36.99,16.36,-5.76,5.12,-34.40
22.428485,-0.1143,-0.0938,1.3047,13.31,-27.53,13.18,-5.50,4.47,-34.07
22.428485,-0.1113,-0.0913,1.2891,17.76,-5.92,5.62,-5.16,4.17,-33.89
22.459185,-0.1138,-0.0776,1.2627,19.96,-1.83,3.78,-4.78,4.10,-33.84
22.459185,-0.1011,-0.0718,1.2158,20.02,11.41,0.00,-4.37,4.22,-33.83
22.519741,-0.1299,-0.0513,1.2520,24.11,16.36,-4.21,-3.94,4.48,-33.94
22.519741,-0.1733,-0.0361,1.2832,37.05,38.64,-7.87,-3.36,5.04,-34.10
22.548556,-0.1626,-0.0264,1.2085,46.63,72.81,-13.43,-2.48,6.13,-34.37
22.548556,-0.1841,-0.0430,1.0430,31.43,102.11,-20.57,-1.74,7.94,-34.78
22.609396,-0.2109,-0.0396,0.8735,16.42,85.14,-12.70,-1.31,9.91,-35.16
22.609396,-0.2681,-0.0303,0.8003,6.16,25.82,-3.23,-1.15,11.01,-35.33
22.638523,-0.3101,-0.0308,0.9331,16.30,-3.23,-2.87,-0.98,11.12,-35.41
22.638523,-0.2905,-0.0283,1.0073,44.86,11.11,-5.19,-0.29,11.19,-35.51
22.669262,-0.2690,-0.0298,0.9048,42.72,21.24,-14.04,0.55,11.54,-35.73
22.669262,-0.2549,-0.0283,0.7554,42.48,16.36,-16.11,1.37,11.95,-36.05
22.729281,-0.2686,-0.0234,0.6680,41.75,6.65,-14.10,2.14,12.21,-36.38
22.729281,-0.2593,-0.0024,0.6631,47.30,-6.41,-3.97,3.02,12.20,-36.57
22.758505,-0.2559,0.0190,0.6782,50.90,-16.11,3.85,3.97,11.96,-36.58
22.758505,-0.2388,0.0405,0.7139,60.24,-21.42,4.09,5.11,11.56,-36.54
22.789277,-0.1758,0.0522,0.6831,52.55,-18.01,2.69,6.30,11.17,-36.51
22.789277,-0.1743,0.0737,0.6465,55.11,-8.73,1.34,7.37,10.87,-36.52
22.849433,-0.1187,0.0972,0.5889,43.88,17.76,2.87,8.34,10.97,-36.45
22.849433,-0.0366,0.1372,0.5430,36.01,19.17,6.77,9.13,11.38,-36.26
22.878534,-0.0098,0.1782,0.5132,35.40,-12.82,5.00,9.89,11.41,-36.10
22.878534,-0.0195,0.1973,0.5400,30.94,-38.21,4.27,10.56,10.87,-36.09
22.909291,-0.0610,0.2075,0.5996,23.80,-51.03,3.05,11.07,9.93,-36.19
22.909291,-0.0552,0.2109,0.6445,20.26,-37.23,5.80,11.50,9.03,-36.27
22.969437,0.0122,0.2256,0.6245,18.25,-15.08,9.16,11.89,8.50,-36.18
22.969437,0.0410,0.2432,0.5625,11.66,-17.40,4.94,12.21,8.19,-36.06
22.998558,0.0088,0.2441,0.5840,3.30,-25.27,1.83,12.35,7.72,-36.07
22.998558,-0.0024,0.2412,0.6406,-1.16,-7.81,7.45,12.37,7.34,-36.03
23.029302,0.0200,0.2471,0.6099,-6.53,15.20,10.93,12.32,7.43,-35.74
23.029302,0.0391,0.2446,0.6406,-12.63,10.44,9.40,12.15,7.63,-35.43
23.089366,0.0415,0.2358,0.6660,-16.36,7.02,7.08,11.88,7.75,-35.17
23.089366,0.0093,0.2305,0.6636,-19.41,11.05,5.55,11.55,7.89,-34.94
23.118873,0.0254,0.2207,0.6709,-21.85,23.56,3.85,11.16,8.20,-34.72
23.118873,0.0659,0.2197,0.6411,-23.99,36.56,1.71,10.72,8.78,-34.45
23.149340,0.0308,0.2041,0.6074,-27.77,40.53,-3.78,10.23,9.59,-34.23
23.149340,-0.0425,0.1841,0.6621,-31.74,15.56,-7.45,9.63,10.15,-34.17
23.211326,-0.0830,0.1611,0.7100,-31.74,9.34,-9.64,8.99,10.41,-34.21
23.211326,-0.0635,0.1348,0.7427,-35.58,9.77,-15.93,8.28,10.61,-34.37
23.241628,-0.0898,0.1182,0.7886,-38.88,4.76,-21.12,7.47,10.85,-34.64
23.241628,-0.1294,0.0972,0.8325,-39.18,-2.50,-21.91,6.61,10.93,-35.00
23.271299,-0.2031,0.0737,0.8721,-36.50,-12.76,-18.80,5.77,10.81,-35.36
23.271299,-0.2212,0.0581,0.9434,-33.75,15.01,-7.32,5.04,10.82,-35.55
23.329437,-0.2485,0.0610,0.8652,-34.67,27.47,-0.12,4.35,11.30,-35.48
23.329437,-0.3149,0.0498,0.8667,-32.78,26.37,5.37,3.70,11.85,-35.29
23.358529,-0.3174,0.0405,0.9741,-25.82,26.43,9.34,3.16,12.32,-35.01
23.358529,-0.2808,0.0659,0.9614,-25.21,46.14,9.89,2.71,13.05,-34.67
23.389294,-0.2217,0.0723,0.8062,-26.98,57.80,11.29,2.27,14.11,-34.29
23.389294,-0.2915,0.0723,0.7988,-32.71,6.41,8.97,1.71,14.82,-33.99
23.449298,-0.2905,0.0781,1.0005,-2.26,-43.52,20.63,1.48,14.34,-33.61
23.449298,-0.2461,0.0576,1.1504,0.00,-26.67,22.77,1.55,13.49,-33.12
23.478521,-0.1660,0.0669,1.0894,1.89,23.25,13.49,1.64,13.50,-32.68
23.478521,-0.1865,0.0771,0.9297,-3.05,13.67,5.98,1.69,13.97,-32.40
23.509299,-0.2783,0.0742,0.9683,-5.37,-27.47,13.79,1.63,13.75,-32.16
23.509299,-0.2593,0.0688,1.0952,0.37,5.80,17.94,1.66,13.41,-31.74
23.569501,-0.1851,0.0762,1.0332,-0.67,72.02,0.79,1.72,14.26,-31.44
23.569501,-0.2075,0.0757,0.8530,-7.87,61.10,-4.94,1.65,15.73,-31.35
23.598580,-0.2476,0.0605,0.9062,-15.08,6.96,-0.12,1.41,16.36,-31.31
23.598580,-0.3208,0.0469,0.9966,-17.82,-38.15,5.19,1.08,16.02,-31.20
23.629272,-0.3208,0.0254,1.1299,-6.47,-35.34,6.53,0.86,15.12,-31.03
23.629272,-0.3179,0.0195,1.0850,-8.73,-5.98,-4.21,0.75,14.75,-30.96
23.689411,-0.3237,-0.0059,1.0005,-16.05,11.47,-4.27,0.48,14.84,-30.99
23.689411,-0.3198,-0.0210,1.0156,-25.45,15.26,-8.30,0.03,15.14,-31.04
23.718868,-0.3389,-0.0181,1.1372,-29.17,17.15,-12.45,-0.59,15.48,-31.21
23.718868,-0.4019,-0.0181,1.1460,-27.59,7.45,-9.34,-1.21,15.76,-31.38
23.749333,-0.3813,-0.0376,1.1421,-24.54,12.33,-3.91,-1.75,15.90,-31.46
23.749333,-0.3608,-0.0464,1.1797,-26.37,13.43,-3.60,-2.26,16.18,-31.48
23.809449,-0.3447,-0.0410,1.2939,-25.39,15.56,-7.02,-2.83,16.47,-31.55
23.809449,-0.3545,-0.0410,1.2627,-17.70,11.47,-5.68,-3.30,16.77,-31.66
23.838570,-0.3867,-0.0610,1.1519,-14.28,0.06,0.06,-3.61,16.85,-31.66
23.838570,-0.3906,-0.0679,1.1558,-18.01,-4.58,3.17,-3.92,16.83,-31.58
23.871229,-0.3989,-0.0610,1.2681,-13.67,-4.03,4.21,-4.22,16.70,-31.45
23.871229,-0.3809,-0.0601,1.2510,-4.94,9.34,3.91,-4.38,16.78,-31.34
23.929318,-0.3706,-0.0591,1.1382,-0.49,10.99,6.04,-4.39,17.01,-31.22
23.929318,-0.3481,-0.0596,1.0718,-4.09,0.61,9.22,-4.38,17.14,-31.04
23.958522,-0.3076,-0.0483,1.1172,-7.69,-12.88,9.52,-4.45,17.02,-30.80
23.958522,-0.2627,-0.0420,1.1636,-2.99,-7.75,9.89,-4.50,16.77,-30.55
23.989277,-0.2422,-0.0391,1.1035,2.20,6.96,8.67,-4.44,16.80,-30.34
23.989277,-0.2476,-0.0337,1.0361,0.00,-2.14,7.39,-4.36,16.90,-30.15
24.049337,-0.2520,-0.0327,1.0654,-3.11,-12.76,8.42,-4.34,16.72,-29.95
24.049337,-0.2695,-0.0298,1.0947,-2.99,-12.08,9.95,-4.35,16.48,-29.73
24.078622,-0.2637,-0.0308,1.1519,-0.37,-11.72,10.38,-4.32,16.25,-29.49
24.078622,-0.2661,-0.0269,1.1812,5.25,-11.05,10.44,-4.21,16.04,-29.24
24.139364,-0.2725,-0.0264,1.1470,9.03,-9.77,12.39,-3.98,15.85,-28.98
24.139364,-0.2827,-0.0293,1.1284,8.85,-11.47,14.89,-3.72,15.66,-28.67
24.168548,-0.2939,-0.0356,1.1416,6.77,-15.38,16.36,-3.47,15.39,-28.32
24.168548,-0.2715,-0.0391,1.1733,5.55,-16.97,16.85,-3.26,15.07,-27.95
24.199498,-0.2363,-0.0391,1.1934,7.14,-13.73,20.51,-3.03,14.78,-27.55
24.199498,-0.2666,-0.0342,1.1899,6.71,-18.80,24.72,-2.77,14.47,-27.06
24.259381,-0.2563,-0.0356,1.2212,2.99,-26.79,22.09,-2.55,14.02,-26.56
24.259381,-0.2339,-0.0322,1.2695,1.59,-32.35,21.36,-2.41,13.43,-26.11
24.288541,-0.2354,-0.0244,1.2915,0.43,-37.66,19.29,-2.29,12.74,-25.69
24.288541,-0.2134,-0.0200,1.3232,3.30,-45.47,16.85,-2.19,11.89,-25.32
24.319584,-0.1377,-0.0107,1.4053,21.30,13.24,25.70,-1.86,11.48,-24.88
24.319584,-0.1836,-0.0186,1.2944,29.36,45.96,22.64,-1.21,12.23,-24.38
24.379457,-0.2407,0.0039,1.3477,28.44,26.55,13.12,-0.57,12.94,-24.03
24.379457,-0.2500,0.0195,1.3999,35.40,28.50,5.25,0.13,13.44,-23.83
24.408780,-0.2881,0.0332,1.3145,40.77,25.82,-5.68,0.90,14.04,-23.86
24.408780,-0.2671,0.0439,1.2642,45.59,31.37,-12.02,1.73,14.59,-24.05
24.439415,-0.2710,0.0620,1.1411,46.51,33.33,-8.61,2.63,15.29,-24.25
24.439415,-0.3242,0.0889,1.0752,39.43,15.62,-5.00,3.47,15.76,-24.36
24.499747,-0.3149,0.0938,1.0322,33.39,14.71,-2.93,4.18,16.05,-24.46
24.499747,-0.3623,0.1279,0.9087,10.80,5.62,11.60,4.71,16.33,-24.37
24.528570,-0.4106,0.1313,1.0269,5.31,-20.45,4.39,4.74,16.06,-24.20
24.528570,-0.4229,0.1592,1.0464,34.18,-18.25,-3.23,5.18,15.71,-24.28
24.559329,-0.3877,0.1636,0.9556,38.51,-26.00,-2.14,5.92,15.27,-24.42
24.559329,-0.3521,0.1724,0.9341,30.64,-24.48,1.53,6.60,14.69,-24.54
24.619638,-0.3599,0.1733,0.8306,11.35,-2.32,9.77,7.07,14.49,-24.47
24.619638,-0.3745,0.1641,0.7231,-29.72,-14.34,23.99,6.97,14.28,-24.16
24.648542,-0.4233,0.1313,0.8301,-29.05,-35.28,26.98,6.31,13.67,-23.72
24.648542,-0.4092,0.1084,1.0171,22.40,-16.72,24.48,6.39,13.02,-23.28
24.679415,-0.3730,0.0903,0.9424,43.15,24.96,13.55,7.19,13.03,-22.91
24.679415,-0.3169,0.0869,0.7183,52.73,65.92,9.89,8.27,13.99,-22.53
24.739383,-0.2900,0.1089,0.5874,50.35,61.04,11.05,9.43,15.29,-22.08
24.739383,-0.2437,0.1265,0.5293,51.33,-0.79,8.42,10.50,15.91,-21.76
24.768555,-0.1978,0.1382,0.6128,47.85,-62.26,6.35,11.50,15.11,-21.80
24.768555,-0.1289,0.1255,0.6797,46.75,-67.57,3.91,12.39,13.78,-22.02
24.799326,-0.1035,0.1587,0.6846,50.54,-50.11,8.48,13.34,12.62,-22.19
24.799326,-0.0571,0.1924,0.5947,45.41,-44.80,6.53,14.30,11.68,-22.27
24.859508,-0.0083,0.2109,0.6011,38.15,-45.59,-0.92,15.09,10.81,-22.47
24.859508,-0.0225,0.2349,0.6191,29.54,-55.79,-0.37,15.72,9.86,-22.77
24.888570,-0.0361,0.2407,0.6606,23.19,-65.00,-1.22,16.18,8.66,-23.15
24.888570,-0.0137,0.2437,0.6694,21.18,-56.70,-2.81,16.57,7.51,-23.55
24.919611,0.0151,0.2485,0.6738,19.17,-43.52,-4.21,16.93,6.58,-23.93
24.919611,0.0420,0.2573,0.6636,18.49,-17.88,-1.53,17.29,6.04,-24.14
24.979404,0.0508,0.2778,0.6240,15.38,-15.44,-1.53,17.62,5.77,-24.25
24.979404,0.0298,0.2861,0.6748,14.59,-3.97,2.26,17.91,5.54,-24.30
25.008576,0.0371,0.2993,0.6411,13.85,10.19,6.23,18.22,5.61,-24.15
25.008576,0.0479,0.3101,0.5781,9.70,12.82,5.55,18.47,5.79,-23.92
25.039352,0.0874,0.3081,0.5151,2.50,16.66,1.46,18.62,6.05,-23.71
25.039352,0.1128,0.3140,0.4717,-6.59,12.39,-3.42,18.59,6.34,-23.60
25.128893,0.1045,0.3188,0.4463,-15.08,6.96,-2.75,18.37,6.53,-23.57
25.128893,0.1050,0.2998,0.4521,-20.69,16.91,-0.31,18.01,6.73,-23.48
25.131025,0.0820,0.2900,0.4292,-29.17,27.95,-2.01,17.53,7.19,-23.30
25.131025,0.0239,0.2676,0.4590,-40.28,30.46,-0.67,16.85,7.76,-23.08
25.158592,-0.0366,0.2271,0.5371,-45.84,36.01,-0.06,16.01,8.39,-22.84
25.158592,-0.0854,0.1958,0.5513,-47.79,41.75,1.83,15.11,9.12,-22.53
25.219830,-0.1548,0.1890,0.5938,-51.27,54.14,3.23,14.17,10.04,-22.16
25.219830,-0.1475,0.1660,0.6787,-53.28,54.57,4.94,13.18,11.07,-21.75
25.251437,-0.1826,0.1465,0.6919,-53.53,58.04,7.63,12.20,12.13,-21.27
25.251437,-0.2227,0.1162,0.7124,-55.05,61.65,10.38,11.22,13.26,-20.75
25.281304,-0.2598,0.0786,0.7812,-51.94,56.64,14.22,10.25,14.36,-20.19
25.281304,-0.2969,0.0635,0.8188,-42.11,69.58,28.63,9.49,15.49,-19.45
25.339414,-0.3516,0.0757,0.7358,-39.18,67.57,39.67,8.95,16.77,-18.40
25.339414,-0.3784,0.0610,0.7451,-34.61,73.00,46.75,8.54,17.88,-17.18
25.368673,-0.4194,0.0840,0.7603,-26.98,119.45,45.04,8.34,19.67,-15.82
25.368673,-0.5278,0.1196,0.7300,-36.44,108.70,43.40,8.18,21.89,-14.39
25.399295,-0.5718,0.1187,0.9023,-40.83,89.54,37.11,7.84,23.64,-13.12
25.399295,-0.5513,0.0952,0.9106,-37.78,96.31,34.79,7.50,25.34,-11.97
25.459409,-0.5986,0.1196,0.9209,-38.57,96.37,28.50,7.20,27.20,-10.90
25.459409,-0.5747,0.0952,1.0342,-40.04,60.79,24.35,6.77,28.61,-9.98
25.488556,-0.5151,0.0991,1.0562,-39.37,54.69,9.40,6.25,29.75,-9.38
25.488556,-0.5933,0.1118,0.9341,-47.30,2.08,10.31,5.55,30.30,-9.01
25.549349,-0.6748,0.1211,1.0547,-58.11,-19.96,5.49,4.61,30.04,-8.81
25.549349,-0.6113,0.0381,1.2124,-58.84,-98.69,18.19,3.41,28.77,-8.62
25.578682,-0.4814,0.0327,1.4580,-21.18,-32.90,9.64,2.72,27.18,-8.39
25.578682,-0.4517,0.0420,1.1777,-8.97,4.88,-2.56,2.53,27.17,-8.28
25.609825,-0.5410,0.0679,1.0283,-26.00,-61.28,-5.62,2.10,26.70,-8.41
25.609825,-0.5679,0.0854,1.3013,-16.42,-47.18,4.52,1.58,25.38,-8.44
25.669355,-0.4448,0.0469,1.2349,14.71,-13.18,-0.85,1.59,24.93,-8.38
25.669355,-0.4502,0.0825,1.1660,47.12,-46.14,-20.26,2.15,24.27,-8.59
25.698591,-0.4663,0.1094,1.1543,78.67,-24.84,-37.17,3.16,23.55,-9.25
25.698591,-0.5288,0.1421,1.1187,76.84,-3.54,-59.69,4.30,23.54,-10.31
25.729366,-0.4805,0.1479,1.2212,-4.33,11.23,-40.89,4.60,23.65,-11.06
25.729366,-0.3579,0.0703,1.2104,-8.00,-8.85,-24.90,4.05,23.62,-11.80
25.789763,-0.3691,0.0811,1.0591,25.45,5.13,6.77,4.20,23.66,-11.99
25.789763,-0.4536,0.1211,0.9639,72.02,5.55,-7.32,5.00,23.68,-12.00
25.819249,-0.4365,0.1484,0.9355,23.86,6.23,22.89,6.25,23.79,-11.82
25.819249,-0.4917,0.1514,0.9331,12.02,-47.00,-4.82,6.58,23.49,-11.74
25.849876,-0.5098,0.2173,1.0322,-15.62,-77.64,3.78,6.49,22.09,-12.07
25.849876,-0.3379,0.1597,1.0962,-5.25,-62.74,-26.61,6.10,20.70,-12.32
25.909560,-0.2764,0.1548,1.0283,-2.44,30.52,-40.59,5.78,20.67,-12.93
25.909560,-0.3447,0.0190,0.7568,-24.48,-36.56,-19.59,5.30,21.09,-13.54
25.938708,-0.3242,0.1099,0.9819,-52.49,-75.38,14.40,4.48,19.77,-13.66
25.938708,-0.1211,0.0571,1.0752,-114.26,-154.24,52.12,2.82,17.22,-13.08
25.969377,-0.2261,0.1035,1.0981,-22.34,-95.03,-8.67,1.65,14.83,-12.88
25.969377,-0.1519,0.1338,1.0596,53.77,-84.53,-62.38,2.19,12.87,-13.86
26.029374,-0.1123,0.1436,1.0376,35.58,-32.71,-78.12,2.86,11.83,-15.37
26.029374,-0.0757,0.0371,0.8950,-0.61,43.64,-16.72,3.10,12.30,-15.96
26.058595,-0.1533,0.0889,0.9355,-36.50,35.22,-49.26,2.49,13.00,-16.68
26.058595,-0.1250,0.0454,0.9395,-44.56,19.23,-31.43,1.44,13.68,-17.47
26.088705,-0.1973,0.0229,0.9692,-75.99,-21.61,20.32,0.30,13.67,-17.61
26.088705,-0.2549,0.0190,1.0410,-78.61,-51.03,47.73,-1.08,12.91,-16.91
26.149402,-0.2212,0.0210,1.1167,-64.09,-41.63,48.89,-2.26,11.95,-15.86
26.149402,-0.2402,-0.0098,1.0850,-30.46,-37.66,28.02,-3.03,11.26,-15.07
26.178696,-0.1851,-0.0166,1.0317,2.99,-66.16,23.99,-3.05,10.21,-14.56
26.178696,-0.1621,0.0469,1.0835,18.43,-96.19,-30.52,-2.94,8.53,-14.47
26.209552,-0.1533,0.0347,0.9629,4.27,-82.52,-45.47,-2.78,6.96,-15.18
26.209552,-0.2427,0.0322,0.9995,33.45,-170.47,-51.21,-2.55,4.44,-16.15
26.269514,-0.0283,0.0068,1.1372,62.32,-235.17,-45.47,-1.55,0.04,-17.04
26.269514,0.0464,0.0605,1.0581,38.33,-101.68,-31.37,-0.46,-3.05,-17.84
26.298629,0.0308,0.0308,0.9971,47.18,-80.38,-22.40,0.48,-4.85,-18.41
26.298629,0.0825,0.0767,1.0278,18.01,-44.98,-17.64,1.16,-6.15,-18.84
26.329416,0.0762,0.1406,0.8994,2.50,-61.04,-15.69,1.45,-7.19,-19.17
26.329416,0.0703,0.1123,0.9575,-21.12,-63.66,-10.13,1.29,-8.38,-19.48
26.389474,0.1787,0.0522,0.9800,-24.29,-65.00,-1.40,0.87,-9.74,-19.64
26.389474,0.2603,-0.0073,0.9990,-22.16,-52.12,-1.65,0.37,-10.93,-19.70
26.418893,0.2783,0.0264,1.0103,-19.90,-41.02,-6.23,-0.01,-11.83,-19.82
26.418893,0.2354,0.0020,0.9741,-23.56,-23.01,-15.99,-0.41,-12.38,-20.03
26.449378,0.2100,0.0269,0.9487,-7.26,-52.80,-13.06,-0.49,-13.23,-20.41
26.449378,0.2837,-0.0278,1.0854,7.93,-30.46,-9.77,-0.47,-14.10,-20.65
26.509386,0.2935,0.0049,1.0137,7.69,2.01,-0.92,-0.26,-14.33,-20.75
26.509386,0.3223,-0.0112,1.0347,17.46,11.66,0.43,-0.09,-14.17,-20.71
26.538911,0.2969,0.0576,0.9404,7.57,22.28,-2.75,0.29,-13.87,-20.75
26.538911,0.2495,0.0298,0.9346,3.17,11.60,-9.89,0.35,-13.49,-20.87
26.569395,0.2183,0.0161,0.9858,14.53,-6.53,-7.32,0.56,-13.45,-21.04
26.569395,0.2139,0.0532,0.9653,11.41,-2.81,-2.44,0.90,-13.60,-21.15
26.629369,0.2500,0.0601,0.9824,-0.67,12.27,4.21,1.00,-13.51,-21.12
26.629369,0.2524,0.0132,0.9370,-1.28,27.10,4.94,0.81,-12.96,-20.98
26.658675,0.2373,0.0537,0.9390,38.21,-25.21,-0.18,1.38,-13.15,-20.95
26.658675,0.2949,0.0820,0.9902,24.78,0.98,-3.85,1.99,-13.40,-21.02
26.689431,0.2300,0.0869,0.9658,17.52,14.65,-2.38,2.44,-13.18,-21.07
26.689431,0.2261,0.1001,0.9834,11.78,-1.71,3.30,2.75,-13.11,-21.04
26.749492,0.2622,0.1021,1.0005,-2.93,13.24,4.82,2.81,-13.02,-20.94
26.749492,0.2612,0.0898,0.9795,-16.97,29.85,5.49,2.57,-12.57,-20.79
26.778631,0.2466,0.0889,0.9927,-33.26,39.98,1.95,2.05,-11.90,-20.67
26.778631,0.2314,0.0605,0.9839,-52.55,58.84,6.77,1.12,-10.88,-20.51
26.809383,0.2012,0.0234,0.9604,-59.81,60.55,8.12,-0.06,-9.67,-20.29
26.809383,0.1616,0.0132,0.9868,-60.24,63.11,14.10,-1.32,-8.40,-20.05
26.869568,0.1060,0.0020,1.0068,-62.38,58.59,14.16,-2.52,-7.26,-19.80
26.869568,0.1055,-0.0469,0.9429,-70.25,46.02,18.55,-3.97,-6.09,-19.46
26.898677,0.0957,-0.0693,0.9546,-56.15,-0.43,21.18,-5.23,-5.67,-19.09
26.898677,0.1255,-0.0713,1.0083,-54.20,-10.62,18.68,-6.41,-5.77,-18.67
26.959439,0.0000,-0.3320,1.2231,-13.37,-9.46,19.78,-7.33,-5.98,-18.25
26.959439,0.1489,-0.0234,0.9360,-58.04,28.56,10.62,-7.94,-5.72,-17.99
26.988685,0.0571,-0.1338,0.9385,-34.36,-3.60,13.61,-8.79,-5.47,-17.77
26.988685,0.1250,-0.1465,0.9219,-24.23,-29.36,9.83,-9.41,-5.76,-17.42
27.019658,0.1450,-0.1709,0.9175,24.48,-70.86,-2.26,-9.46,-6.74,-17.22
27.019658,0.1401,-0.0996,1.0103,83.62,-127.75,-8.42,-8.20,-8.98,-17.05
27.080016,0.1499,-0.0664,0.9819,75.93,-104.98,-5.62,-6.62,-11.25,-16.94
27.080016,0.2266,-0.0547,0.9487,57.50,-67.44,-1.89,-5.31,-12.95,-16.88
27.109425,0.2764,-0.0195,0.9731,44.80,-43.33,-1.22,-4.33,-14.00,-16.83
27.109425,0.2578,-0.0156,0.9463,42.60,-39.67,-0.43,-3.49,-14.76,-16.80
27.139471,0.2964,0.0068,0.9702,31.92,-23.86,-0.85,-2.72,-15.44,-16.79
27.139471,0.2925,0.0073,0.9648,30.70,-14.71,-0.98,-2.10,-15.83,-16.80
27.199709,0.3159,0.0132,0.9424,42.72,-17.40,-3.78,-1.33,-16.18,-16.84
27.199709,0.3237,0.0400,0.9541,42.60,-16.72,-5.07,-0.46,-16.50,-16.94
27.228697,0.3638,0.2241,0.8149,22.34,-1.65,-8.48,0.36,-16.73,-17.06
27.228697,0.2207,-0.0513,1.0815,28.20,-12.63,-4.64,0.48,-16.67,-17.22
27.259449,0.2900,0.0552,0.9595,31.19,-11.41,2.08,1.08,-16.86,-17.22
27.259449,0.2881,-0.0532,1.0132,-5.43,2.14,0.24,1.14,-16.86,-17.14
27.319802,0.3701,0.0542,0.9644,14.40,2.75,4.70,1.45,-17.06,-17.05
27.319802,0.3555,0.0596,0.9429,12.57,7.75,-2.14,1.72,-16.96,-17.03
27.348736,0.2944,0.0566,0.9385,14.59,-8.97,1.59,1.99,-16.96,-17.04
27.348736,0.3770,0.2349,0.7910,-3.72,-8.79,1.34,2.29,-17.27,-17.02
27.379440,0.2881,0.0293,0.9932,5.31,-10.38,3.66,2.13,-17.34,-17.01
27.379440,0.3804,0.0825,0.9468,-2.56,13.06,-1.04,2.11,-17.19,-16.96
27.439599,0.3369,0.0664,0.9326,-8.91,21.55,-3.97,2.02,-16.83,-17.01
27.439599,0.2964,0.0703,0.9478,-18.31,29.97,-1.53,1.73,-16.26,-17.03
27.468659,0.2803,0.0640,0.9482,-25.76,28.93,2.81,1.30,-15.72,-16.98
27.468659,0.3257,0.0640,0.9780,-30.70,34.61,4.15,0.71,-15.13,-16.86
27.499426,0.2754,0.0283,0.9458,-20.45,13.37,1.77,0.13,-14.57,-16.77
27.499426,0.2739,0.0322,0.9644,-18.92,15.50,0.18,-0.27,-14.30,-16.74
27.559399,0.2378,0.0254,0.9727,-16.60,22.22,0.49,-0.59,-13.96,-16.73
27.559399,0.2329,0.0137,0.9629,-13.12,22.58,2.87,-0.91,-13.48,-16.67
27.588826,0.2559,0.0093,0.9604,-13.85,25.51,1.71,-1.20,-12.99,-16.61
27.588826,0.2539,0.0049,0.9712,-17.40,30.94,-0.18,-1.50,-12.46,-16.59
27.619698,0.2012,0.0127,0.9839,-15.20,37.35,-0.31,-1.81,-11.77,-16.60
27.619698,0.1274,-0.0024,0.9521,-3.60,16.36,4.21,-2.02,-11.19,-16.55
27.679612,0.2002,0.0020,0.9785,-4.76,15.20,8.24,-2.11,-10.91,-16.41
27.679612,0.2261,-0.0103,0.9775,-3.48,23.62,8.12,-2.25,-10.51,-16.23
27.708697,0.1719,-0.0044,0.9761,9.28,9.58,6.10,-2.19,-10.17,-16.09
27.708697,0.1753,0.0044,1.0117,9.52,8.00,10.62,-2.04,-9.99,-15.91
27.739431,0.1890,-0.0068,0.9731,2.93,22.22,11.17,-1.92,-9.72,-15.67
27.739431,0.2046,-0.0024,0.9717,2.81,28.08,10.56,-1.94,-9.15,-15.44
27.799447,0.1929,0.0107,0.9478,9.52,7.14,5.55,-1.81,-8.84,-15.27
27.799447,0.1719,0.0161,0.9756,4.64,6.90,1.65,-1.68,-8.70,-15.19
27.828713,0.1758,0.0088,0.9712,1.83,4.76,-1.28,-1.63,-8.55,-15.18
27.828713,0.1279,0.0010,0.9790,3.48,-6.96,-2.44,-1.57,-8.55,-15.21
27.859393,0.1221,0.0225,0.9839,-1.34,-14.89,-2.20,-1.53,-8.83,-15.25
27.859393,0.0688,0.0127,1.0190,-8.18,4.33,3.97,-1.63,-8.97,-15.23
27.919736,0.1250,0.0166,0.9761,-0.43,9.40,8.85,-1.77,-8.73,-15.07
27.919736,0.1841,0.0000,0.9312,13.49,-24.90,4.33,-1.64,-8.92,-14.92
27.948739,0.1885,0.0117,1.0200,10.80,-33.57,4.52,-1.43,-9.53,-14.82
27.948739,0.2026,0.0000,1.0303,10.13,-3.60,11.29,-1.25,-9.91,-14.65
27.979556,0.2432,0.0474,1.0000,9.77,16.11,10.44,-1.07,-9.74,-14.40
27.979556,0.2090,0.0361,0.9658,7.57,11.41,5.07,-0.91,-9.51,-14.25
28.039460,0.2065,0.0049,0.9722,5.68,18.49,2.14,-0.80,-9.21,-14.18
28.039460,0.1885,0.0244,0.9619,3.78,15.38,2.93,-0.70,-8.82,-14.10
28.068772,0.1831,0.0215,0.9658,-4.94,10.93,0.06,-0.73,-8.55,-14.05
28.068772,0.0879,-0.0142,1.0132,-7.02,16.17,7.45,-0.88,-8.28,-13.97
28.099543,0.1260,0.0054,1.0527,5.43,24.23,19.90,-0.92,-7.90,-13.67
28.099543,0.1587,0.0303,0.9443,8.36,8.00,18.43,-0.82,-7.54,-13.26
28.159439,0.1440,0.0513,0.9951,5.80,-3.42,13.55,-0.73,-7.55,-12.93
28.159439,0.1484,0.0391,0.9907,-0.43,-0.98,10.62,-0.69,-7.62,-12.67
28.188816,0.2070,0.0371,0.9727,-10.99,9.89,5.31,-0.83,-7.53,-12.50
28.188816,0.1606,-0.0024,0.9722,-10.86,10.01,-0.37,-1.09,-7.29,-12.45
28.219937,0.1328,-0.0049,0.9561,-7.81,-0.31,1.10,-1.27,-7.20,-12.43
28.219937,0.1211,-0.0195,0.9424,-3.36,-15.26,1.77,-1.38,-7.37,-12.39
28.279630,0.0933,-0.0151,0.9868,2.44,-16.78,9.89,-1.41,-7.71,-12.27
28.279630,0.1611,-0.0005,0.9932,11.11,-21.79,10.86,-1.29,-8.10,-12.03
28.308801,0.1909,0.0366,0.9995,9.95,-25.82,3.11,-0.72,-8.83,-12.41
28.308801,0.1953,0.0391,0.9688,1.59,-18.49,1.53,-0.65,-9.24,-12.34
28.369592,0.2041,0.0332,0.9556,-8.54,-14.16,-1.22,-0.72,-9.55,-12.33
28.369592,0.2163,0.0435,0.9907,-13.49,-7.81,-2.50,-0.94,-9.79,-12.36
28.398693,0.2109,0.0303,1.0005,-16.05,5.49,-6.65,-1.21,-9.81,-12.45
28.398693,0.1562,0.0024,0.9810,-15.26,2.32,-2.56,-1.52,-9.68,-12.54
28.429472,0.1558,-0.0015,0.9941,-11.54,-2.44,1.28,-1.77,-9.70,-12.54
28.429472,0.1802,0.0015,1.0024,-8.36,-1.16,3.05,-1.98,-9.74,-12.47
28.489465,0.1821,0.0010,1.0000,-5.68,1.71,3.48,-2.13,-9.73,-12.40
28.489465,0.1860,-0.0039,0.9849,-3.54,1.83,2.69,-2.22,-9.69,-12.33
28.518950,0.1812,-0.0107,0.9658,-4.64,-3.36,4.21,-2.32,-9.69,-12.25
28.518950,0.1880,-0.0205,0.9814,-3.42,-6.90,4.09,-2.41,-9.82,-12.15
28.549430,0.1855,-0.0181,0.9932,-0.85,-6.71,3.11,-2.47,-9.95,-12.06
28.549430,0.1670,-0.0210,0.9604,0.55,-4.64,3.42,-2.48,-10.05,-11.99
28.609600,0.2046,-0.0229,0.9585,-0.06,-10.38,3.66,-2.48,-10.21,-11.90
28.609600,0.1953,-0.0146,0.9746,0.00,-7.93,2.44,-2.49,-10.39,-11.83
28.639892,0.1870,-0.0166,0.9658,-1.59,-10.99,3.85,-2.52,-10.59,-11.76
28.639892,0.2061,-0.0156,0.9761,-1.77,-10.74,3.97,-2.57,-10.81,-11.66
28.668726,0.2280,-0.0146,0.9888,-1.22,-4.52,1.95,-2.61,-10.96,-11.58
28.668726,0.1890,-0.0200,0.9634,-2.14,-4.88,2.93,-2.65,-11.04,-11.53
28.729575,0.2124,-0.0205,0.9688,-1.40,-7.51,2.75,-2.70,-11.18,-11.45
28.729575,0.2041,-0.0146,0.9785,-0.92,-5.62,2.75,-2.73,-11.31,-11.39
28.758718,0.2217,-0.0093,0.9849,-0.92,-2.01,2.62,-2.76,-11.39,-11.32
28.758718,0.2168,-0.0059,0.9834,0.00,-2.62,1.34,-2.79,-11.44,-11.27
28.789494,0.1919,-0.0010,0.9795,-0.06,-2.99,2.01,-2.78,-11.51,-11.23
28.789494,0.2114,-0.0093,0.9634,-1.04,-3.91,2.81,-2.80,-11.57,-11.17
28.849459,0.2192,-0.0112,0.9844,-0.85,-4.03,2.56,-2.83,-11.66,-11.10
28.849459,0.2217,-0.0151,0.9858,0.43,1.40,2.01,-2.84,-11.69,-11.04
28.878695,0.2290,-0.0181,0.9707,0.79,3.11,1.10,-2.83,-11.63,-11.00
28.878695,0.2075,-0.0186,0.9771,-0.73,2.56,1.65,-2.84,-11.57,-10.97
28.909480,0.2197,-0.0181,0.9834,0.00,2.20,2.08,-2.86,-11.53,-10.92
28.909480,0.2266,-0.0186,0.9771,0.49,3.23,1.40,-2.86,-11.47,-10.88
28.969492,0.2246,-0.0215,0.9551,0.73,-3.60,0.12,-2.84,-11.48,-10.85
28.969492,0.2188,-0.0215,0.9658,0.37,-3.60,-0.49,-2.83,-11.56,-10.84
28.998864,0.2124,-0.0220,0.9795,0.12,0.31,0.18,-2.82,-11.60,-10.84
28.998864,0.2109,-0.0298,0.9727,0.12,6.77,-0.79,-2.81,-11.52,-10.84
29.029517,0.2036,-0.0205,0.9561,-0.55,4.33,-0.31,-2.81,-11.40,-10.84
29.029517,0.2017,-0.0215,0.9717,-0.67,0.00,0.24,-2.82,-11.36,-10.83
29.089530,0.2178,-0.0234,0.9780,-0.61,-2.32,0.31,-2.83,-11.39,-10.82
29.089530,0.2139,-0.0156,0.9893,0.06,0.43,-0.06,-2.84,-11.41,-10.80
29.119033,0.2202,-0.0132,0.9839,-0.61,1.53,-0.61,-2.85,-11.39,-10.80
29.119033,0.2104,-0.0156,0.9766,-0.06,2.99,-1.46,-2.85,-11.34,-10.82
29.149493,0.2080,-0.0171,0.9731,0.37,1.71,-0.61,-2.83,-11.28,-10.83
29.149493,0.2144,-0.0190,0.9756,0.55,-0.67,-0.31,-2.82,-11.29,-10.83
29.209628,0.1909,-0.0161,0.9717,0.49,-1.10,0.49,-2.81,-11.30,-10.82
29.209628,0.2168,-0.0127,0.9800,0.49,-0.98,0.43,-2.80,-11.33,-10.79
29.238719,0.2065,-0.0063,0.9897,0.00,2.32,0.79,-2.79,-11.32,-10.77
29.238719,0.2046,-0.0127,0.9678,0.06,3.23,0.98,-2.79,-11.25,-10.74
# luecke 31.094950-36.365206
36.379517,0.1123,-0.0371,0.9932,2.38,-1.46,0.37,-1.46,0.78,0.00
36.379517,0.1084,-0.0356,0.9761,2.32,0.79,1.28,-1.46,0.78,0.00
36.408943,0.1147,-0.0386,0.9814,2.38,-3.17,1.65,-1.46,0.78,0.00
36.408943,0.1143,-0.0352,0.9951,2.87,-7.26,1.40,-1.46,0.78,0.00
36.439605,0.1250,-0.0361,0.9912,2.50,-7.57,1.10,-1.46,0.78,0.00
36.439605,0.1221,-0.0332,1.0020,1.65,-3.30,0.49,-1.46,0.78,0.00
36.499594,0.1177,-0.0371,0.9814,1.46,0.06,0.61,-1.46,0.78,0.00
36.499594,0.1309,-0.0391,0.9863,-0.49,-1.34,1.65,-1.46,0.78,0.00
36.529071,0.1343,-0.0327,0.9927,-1.53,0.06,1.40,-1.46,0.78,0.00
36.529071,0.1392,-0.0288,0.9780,-1.22,4.03,-0.12,-1.46,0.78,0.00
36.559587,0.1279,-0.0312,0.9692,-0.61,0.98,-1.10,-1.46,0.78,0.00
36.559587,0.1182,-0.0273,0.9795,2.01,-0.92,-1.89,-1.46,0.78,0.00
36.619608,0.1172,-0.0317,0.9863,-0.06,-1.95,-1.40,-1.46,0.78,0.00
36.619608,0.1143,-0.0312,1.0000,-3.30,-2.01,-0.43,-1.46,0.78,0.00
36.651841,0.1118,-0.0317,1.0054,-2.56,-1.22,-0.31,-1.46,0.78,0.00
36.651841,0.1260,-0.0366,1.0010,-1.77,1.04,-0.85,-1.46,0.78,0.00
36.709523,0.1279,-0.0352,0.9883,-3.42,-1.77,-0.67,-1.46,0.78,0.00
36.709523,0.1289,-0.0396,0.9868,-4.21,-4.70,-0.18,-1.46,0.78,0.00
36.738933,0.1455,-0.0391,1.0166,-3.05,-1.59,-0.55,-1.46,0.78,0.00
36.738933,0.1328,-0.0415,0.9790,-0.24,-0.37,-1.95,-1.46,0.78,0.00
36.769638,0.1406,-0.0425,0.9712,-0.06,-4.21,-1.83,-1.46,0.78,0.00
36.769638,0.1318,-0.0444,0.9795,-0.24,-4.58,-3.36,-1.46,0.78,0.00
36.829627,0.1162,-0.0415,0.9819,-0.24,-5.37,-2.69,-1.46,0.78,0.00
36.829627,0.1235,-0.0327,1.0078,0.00,-6.41,-2.08,-1.46,0.78,0.00
36.858810,0.1191,-0.0356,1.0054,0.12,0.37,-0.85,-1.46,0.78,0.00
36.858810,0.1313,-0.0396,0.9956,-0.12,0.37,0.24,-1.46,0.78,0.00
36.889595,0.1343,-0.0327,0.9941,0.12,-0.18,0.18,-1.46,0.78,0.00
36.889595,0.1455,-0.0347,0.9937,0.06,-1.83,-0.24,-1.46,0.78,0.00
36.949882,0.1396,-0.0352,0.9956,0.31,-0.31,-0.31,-1.46,0.78,0.00
36.949882,0.1357,-0.0381,0.9902,1.10,0.79,-0.67,-1.46,0.78,0.00
36.978792,0.1221,-0.0371,0.9746,0.55,-2.62,-0.12,-1.46,0.78,0.00
36.978792,0.1479,-0.0376,0.9912,0.31,-3.23,-0.12,-1.46,0.78,0.00
37.009951,0.1387,-0.0396,0.9888,0.98,0.49,-1.77,-1.46,0.78,0.00
37.009951,0.1177,-0.0376,0.9844,0.98,-0.31,-0.55,-1.46,0.78,0.00
37.069633,0.1221,-0.0366,0.9868,0.06,-0.73,1.65,-1.46,0.78,0.00
37.069633,0.1533,-0.0381,0.9814,-0.92,0.67,0.67,-1.46,0.78,0.00
37.099651,0.1299,-0.0352,0.9868,-0.79,-0.67,-0.37,-1.46,0.78,0.00
37.099651,0.1260,-0.0327,0.9966,-0.43,0.31,0.12,-1.46,0.78,0.00
37.129611,0.1421,-0.0371,0.9912,-0.61,0.24,0.43,-1.46,0.78,0.00
37.129611,0.1309,-0.0386,0.9927,-0.43,-0.55,0.61,-1.46,0.78,0.00
37.189574,0.1494,-0.0366,1.0029,0.24,2.01,-0.18,-1.46,0.78,0.00
37.189574,0.1484,-0.0405,1.0024,-0.12,3.97,-0.37,-1.46,0.78,0.00
37.218793,0.1167,-0.0400,0.9751,0.37,0.43,0.18,-1.46,0.78,0.00
37.218793,0.1548,-0.0396,0.9912,0.67,0.67,-0.79,-1.46,0.78,0.00
37.249811,0.1328,-0.0361,0.9849,0.12,1.28,-1.59,-1.46,0.78,0.00
37.249811,0.1353,-0.0347,0.9990,0.06,2.50,-1.22,-1.46,0.78,0.00
37.310079,0.1025,-0.0366,0.9761,-1.34,-0.24,0.67,-1.46,0.78,0.00
37.310079,0.1392,-0.0381,0.9966,0.00,-1.04,0.18,-1.46,0.78,0.00
37.339796,0.1289,-0.0376,0.9927,0.43,-0.92,-0.49,-1.46,0.78,0.00
37.339796,0.1250,-0.0400,0.9854,0.24,-1.59,0.06,-1.46,0.78,0.00
37.369095,0.1357,-0.0371,0.9888,-0.24,-2.01,0.61,-1.46,0.78,0.00
37.369095,0.1479,-0.0396,0.9897,-0.18,0.00,-0.06,-1.46,0.78,0.00
37.429716,0.1357,-0.0400,0.9766,0.37,0.18,-0.49,-1.46,0.78,0.00
37.429716,0.1436,-0.0420,0.9839,0.06,-1.59,-0.49,-1.46,0.78,0.00
37.458925,0.1377,-0.0439,0.9849,-0.24,-0.79,-1.10,-1.46,0.78,0.00
37.458925,0.1353,-0.0376,0.9849,-0.06,-4.52,-1.34,-1.46,0.78,0.00
37.489838,0.1357,-0.0347,0.9917,0.85,-8.12,-1.16,-1.46,0.78,0.00
37.489838,0.1353,-0.0269,0.9966,3.54,-9.77,-0.73,-1.46,0.78,0.00
37.549858,0.1460,-0.0273,0.9946,4.70,0.12,-2.32,-1.46,0.78,0.00
37.549858,0.1216,-0.0259,0.9502,3.66,-1.59,-1.71,-1.46,0.78,0.00
37.578854,0.1392,-0.0229,0.9746,0.73,-10.68,-0.06,-1.46,0.78,0.00
37.578854,0.1328,-0.0283,0.9902,1.10,-16.85,-0.06,-1.46,0.78,0.00
37.609550,0.1245,-0.0269,0.9995,0.43,-14.59,0.18,-1.46,0.78,0.00
37.609550,0.1650,-0.0312,0.9937,-0.18,-11.17,1.53,-1.46,0.78,0.00
37.669571,0.1763,-0.0312,1.0015,1.04,-9.34,-1.16,-1.46,0.78,0.00
37.669571,0.1797,-0.0356,1.0063,0.31,-1.22,-1.77,-1.46,0.78,0.00
37.698782,0.1841,-0.0342,1.0000,-0.37,1.46,-1.28,-1.46,0.78,0.00
37.698782,0.1694,-0.0332,0.9941,-0.79,3.05,-0.73,-1.46,0.78,0.00
37.730002,0.1704,-0.0371,0.9785,-1.10,3.72,0.12,-1.46,0.78,0.00
37.730002,0.1685,-0.0376,0.9756,-1.40,4.33,-0.73,-1.46,0.78,0.00
37.789575,0.1484,-0.0405,0.9658,-1.40,0.43,-0.98,-1.46,0.78,0.00
37.789575,0.1499,-0.0356,0.9883,-0.55,2.62,-1.40,-1.46,0.78,0.00
37.818769,0.1460,-0.0303,0.9990,-0.37,7.14,-0.43,-1.46,0.78,0.00
37.818769,0.1519,-0.0356,0.9761,-0.98,11.35,-0.98,-1.46,0.78,0.00
37.849898,0.1587,-0.0298,0.9668,-0.55,8.06,-1.95,-1.46,0.78,0.00
37.849898,0.1431,-0.0278,0.9956,0.24,4.58,-1.28,-1.46,0.78,0.00
37.909588,0.1460,-0.0264,0.9937,0.12,4.76,-0.37,-1.46,0.78,0.00
37.909588,0.1426,-0.0259,0.9912,0.12,2.93,-0.31,-1.46,0.78,0.00
37.939027,0.1416,-0.0298,0.9893,-0.98,-0.67,1.28,-1.46,0.78,0.00
37.939027,0.1514,-0.0342,0.9888,-0.98,-4.76,1.22,-1.46,0.78,0.00
37.971491,0.1577,-0.0308,0.9966,-0.24,-4.70,0.00,-1.46,0.78,0.00
37.971491,0.1587,-0.0361,0.9873,0.06,-3.85,-0.67,-1.46,0.78,0.00
38.029599,0.1475,-0.0347,0.9829,-0.37,-5.80,-0.43,-1.46,0.78,0.00
38.029599,0.1509,-0.0322,0.9771,-2.01,-6.53,-0.24,-1.46,0.78,0.00
38.058824,0.1509,-0.0317,0.9697,-3.72,-10.44,0.31,-1.46,0.78,0.00
38.058824,0.1616,-0.0361,0.9644,-5.80,-17.46,-0.98,-1.46,0.78,0.00
38.119688,0.1841,-0.0273,0.9673,-9.89,-19.35,-3.17,-1.46,0.78,0.00
38.119688,0.2158,-0.0244,0.9546,-15.81,-24.90,-9.09,-1.46,0.78,0.00
38.149106,0.1523,-0.0513,0.9736,-18.01,-43.52,-12.63,-1.46,0.78,0.00
38.149106,0.1880,-0.0513,0.9917,-16.97,-39.67,-11.72,-1.46,0.78,0.00
38.179585,0.2236,-0.0591,0.9517,-12.70,-30.09,-14.16,-1.46,0.78,0.00
38.179585,0.2192,-0.0854,0.9399,-9.28,-31.56,-14.22,-1.46,0.78,0.00
38.239740,0.2319,-0.0713,0.9570,-6.23,-30.46,-10.38,-1.46,0.78,0.00
38.239740,0.2261,-0.0547,0.9995,-6.53,-26.31,-7.51,-1.46,0.78,0.00
38.268860,0.2085,-0.0669,0.9697,0.18,-14.53,-9.34,-1.46,0.78,0.00
38.268860,0.2290,-0.0664,0.9585,2.87,-10.80,-4.46,-1.46,0.78,0.00
38.301642,0.2319,-0.0630,0.9570,2.44,-16.91,-0.31,-1.46,0.78,0.00
38.301642,0.2861,-0.0562,0.9614,0.92,-8.73,0.67,-1.46,0.78,0.00
38.361643,0.2876,-0.0718,0.9517,2.75,-11.84,-2.14,-1.46,0.78,0.00
38.361643,0.2754,-0.0659,0.9507,1.65,-15.44,-1.59,-1.46,0.78,0.00
38.391707,0.2944,-0.0669,0.9761,-0.12,-16.24,0.43,-1.46,0.78,0.00
38.391707,0.2925,-0.0620,0.9756,-1.53,-9.77,0.67,-1.46,0.78,0.00
38.421740,0.2769,-0.0693,0.9395,-1.28,-18.07,3.60,-1.46,0.78,0.00
38.421740,0.2974,-0.0645,0.9395,-0.49,-35.83,7.14,-1.46,0.78,0.00
38.480507,0.3472,-0.0601,0.9502,1.34,-50.90,7.08,-1.46,0.78,0.00
38.480507,0.3486,-0.0527,0.9448,5.86,-64.09,3.91,-1.46,0.78,0.00
38.511503,0.3652,-0.0513,0.9473,2.50,-59.02,4.33,-1.46,0.78,0.00
38.511503,0.4014,-0.0449,0.9565,0.73,-43.46,2.44,-1.46,0.78,0.00
38.539778,0.3770,-0.0620,0.9272,0.24,-33.81,0.24,-1.46,0.78,0.00
38.539778,0.3857,-0.0659,0.9072,0.85,-36.87,0.98,-1.46,0.78,0.00
38.600156,0.3936,-0.0591,0.9346,3.23,-32.23,0.24,-1.46,0.78,0.00
38.600156,0.3979,-0.0649,0.9126,3.66,-20.81,0.12,-1.46,0.78,0.00
38.628885,0.4224,-0.0688,0.8975,0.61,-10.31,-0.61,-1.46,0.78,0.00
38.628885,0.4238,-0.0713,0.8804,-1.16,-5.55,-1.22,-1.46,0.78,0.00
38.659656,0.4214,-0.0493,0.9277,-2.14,0.61,-1.16,-1.46,0.78,0.00
38.659656,0.4038,-0.0615,0.8936,0.73,11.47,-4.15,-1.46,0.78,0.00
38.719579,0.3999,-0.0610,0.8672,1.40,5.98,-3.11,-1.46,0.78,0.00
38.719579,0.4111,-0.0605,0.8848,0.67,-6.65,-0.49,-1.46,0.78,0.00
38.752033,0.4058,-0.0566,0.9126,-0.67,-7.39,0.24,-1.46,0.78,0.00
38.752033,0.4121,-0.0454,0.9277,-0.79,-0.24,-0.55,-1.46,0.78,0.00
38.781494,0.4204,-0.0493,0.9204,-0.92,-1.22,1.28,-1.46,0.78,0.00
38.781494,0.4214,-0.0552,0.9102,-0.98,-1.04,1.83,-1.46,0.78,0.00
38.839661,0.4312,-0.0566,0.9038,-1.40,3.23,0.73,-1.46,0.78,0.00
38.839661,0.4321,-0.0601,0.9004,1.10,-4.09,0.67,-1.46,0.78,0.00
38.868812,0.4375,-0.0571,0.9141,1.16,-4.15,-0.49,-1.46,0.78,0.00
38.868812,0.4331,-0.0542,0.9150,0.49,1.22,-0.92,-1.46,0.78,0.00
38.899647,0.4189,-0.0605,0.8965,0.00,0.55,-0.24,-1.46,0.78,0.00
38.899647,0.4248,-0.0576,0.9102,-1.16,4.70,-0.31,-1.46,0.78,0.00
38.959588,0.4180,-0.0581,0.9072,-2.08,8.97,-0.92,-1.46,0.78,0.00
38.959588,0.3882,-0.0723,0.8755,-1.28,3.60,-0.92,-1.46,0.78,0.00
38.988977,0.4150,-0.0518,0.9189,-1.46,0.06,0.12,-1.46,0.78,0.00
38.988977,0.3975,-0.0601,0.9087,-1.59,1.53,1.04,-1.46,0.78,0.00
39.019598,0.4102,-0.0625,0.8931,-1.10,2.26,0.37,-1.46,0.78,0.00
39.019598,0.4175,-0.0586,0.9033,-0.98,-0.73,0.61,-1.46,0.78,0.00
39.079791,0.4028,-0.0615,0.9009,-0.67,-4.09,1.10,-1.46,0.78,0.00
39.079791,0.4165,-0.0566,0.9058,0.12,-6.90,1.40,-1.46,0.78,0.00
39.108898,0.4272,-0.0566,0.9062,0.79,-10.25,1.95,-1.44,0.65,27.24
39.108898,0.4321,-0.0527,0.9155,1.22,-8.61,1.10,-1.42,0.45,27.27
39.139606,0.4336,-0.0625,0.8936,0.31,-7.63,0.06,-1.41,0.28,27.27
39.139606,0.4351,-0.0601,0.9033,-1.16,-10.44,0.73,-1.43,0.03,27.28
39.199576,0.4321,-0.0630,0.8940,-1.59,-12.70,1.46,-1.47,-0.33,27.31
39.199576,0.4409,-0.0586,0.9062,-0.55,-12.15,1.04,-1.53,-0.79,27.35
39.228798,0.4214,-0.0645,0.8936,-0.06,-1.40,-0.79,-1.57,-1.19,27.36
39.228798,0.4312,-0.0664,0.8794,-0.43,-1.89,0.79,-1.64,-1.59,27.37
39.259509,0.4370,-0.0703,0.8818,0.06,-4.33,0.31,-1.71,-2.13,27.41
39.259509,0.4375,-0.0664,0.8989,-0.06,1.34,-1.28,-1.80,-2.75,27.42
39.319579,0.4365,-0.0688,0.8896,-1.34,3.60,-0.73,-1.92,-3.37,27.43
39.319579,0.4365,-0.0620,0.8950,-1.28,3.54,-0.24,-2.07,-4.09,27.47
39.349104,0.4287,-0.0674,0.8862,-0.92,2.20,-0.24,-2.22,-4.89,27.50
39.349104,0.4434,-0.0601,0.9053,-0.37,3.66,-1.04,-2.37,-5.77,27.55
39.409721,0.4351,-0.0698,0.8940,-1.77,5.25,-0.31,-2.54,-6.65,27.60
39.409721,0.4331,-0.0645,0.9009,-1.34,2.01,-0.31,-2.74,-7.59,27.66
39.438864,0.4399,-0.0562,0.9150,-0.06,0.79,0.06,-2.91,-8.60,27.73
39.438864,0.4302,-0.0591,0.8936,1.65,2.14,-1.04,-3.04,-9.59,27.81
39.469631,0.4297,-0.0527,0.8916,2.32,-0.12,-1.16,-3.14,-10.57,27.86
39.469631,0.4277,-0.0513,0.8989,1.89,1.34,-1.16,-3.24,-11.55,27.92
39.529667,0.4160,-0.0586,0.8916,1.28,4.21,-1.53,-3.32,-12.43,27.96
39.529667,0.4189,-0.0591,0.8882,0.12,3.91,-0.67,-3.43,-13.24,28.01
39.558772,0.4165,-0.0635,0.8936,0.00,0.00,0.85,-3.55,-14.07,28.09
39.558772,0.4233,-0.0620,0.9038,0.24,4.15,-0.61,-3.66,-14.82,28.16
39.589671,0.4258,-0.0635,0.8984,0.37,2.14,-0.18,-3.75,-15.50,28.21
39.589671,0.4224,-0.0674,0.8945,0.49,1.40,-0.61,-3.84,-16.13,28.26
39.649917,0.4424,-0.0669,0.8921,0.12,1.71,-1.16,-3.93,-16.74,28.31
39.649917,0.4258,-0.0635,0.8979,0.67,0.92,-1.04,-4.00,-17.30,28.34
39.678793,0.4194,-0.0698,0.8833,0.12,3.78,-1.53,-4.07,-17.78,28.36
39.678793,0.4302,-0.0659,0.8916,-0.67,-0.55,-0.61,-4.16,-18.25,28.39
39.709510,0.4253,-0.0630,0.9087,-1.95,6.41,-1.65,-4.25,-18.65,28.41
39.709510,0.4331,-0.0576,0.9106,-2.93,12.15,-2.62,-4.36,-18.87,28.39
39.769635,0.4336,-0.0562,0.9097,-3.42,13.79,-4.21,-4.45,-19.00,28.35
39.769635,0.4248,-0.0552,0.9185,-5.25,14.83,-3.36,-4.57,-19.07,28.29
39.798880,0.4175,-0.0571,0.9297,-4.70,9.64,-1.46,-4.70,-19.17,28.26
39.798880,0.4263,-0.0547,0.9438,-4.09,16.66,-3.48,-4.81,-19.20,28.22
39.829624,0.4258,-0.0498,0.9648,-5.13,25.94,-4.70,-4.91,-19.05,28.14
39.829624,0.4170,-0.0493,0.9648,-10.50,40.47,-5.80,-5.03,-18.63,28.01
39.889625,0.4043,-0.0635,0.9409,-11.47,30.94,-4.33,-5.21,-18.18,27.89
39.889625,0.4111,-0.0610,0.9746,-18.19,39.18,-7.20,-5.47,-17.73,27.75
39.919006,0.3794,-0.0737,0.9883,-32.23,57.01,-8.91,-1.87,1.53,-0.13
39.919006,0.3784,-0.1060,0.9932,-38.21,92.96,-10.38,-2.58,3.01,-0.34
39.949737,0.3159,-0.1226,0.9658,-44.80,121.15,-10.44,-3.44,5.17,-0.63
39.949737,0.2095,-0.1548,0.9453,-37.90,109.07,3.23,-4.36,7.50,-0.79
40.009685,0.2466,-0.1313,0.9727,-20.39,104.80,10.01,-4.92,9.48,-0.73
40.009685,0.1973,-0.1421,0.9468,-8.12,105.96,0.49,-5.23,11.45,-0.70
40.038812,0.6240,0.1870,0.9194,26.67,89.11,26.92,-4.29,12.18,-0.40
40.038812,0.1538,-0.1104,0.9868,26.92,58.72,-13.12,-4.21,13.79,-0.58
40.069672,-0.0293,-0.2168,1.0503,17.76,54.75,6.90,-4.02,14.75,-0.75
40.069672,0.1763,-0.0796,1.0083,12.33,54.26,-5.98,-3.70,15.22,-0.75
40.128757,0.0630,-0.1245,1.1191,9.52,26.79,-6.16,-3.49,15.08,-0.99
40.128757,0.1064,-0.1079,1.2129,1.53,27.53,-3.60,-3.60,14.91,-1.14
40.159468,0.1138,-0.1177,1.2456,-5.00,33.39,0.67,-3.85,14.77,-1.22
40.159468,0.1426,-0.1357,1.2705,-4.88,27.77,0.79,-4.13,14.51,-1.27
40.188892,0.1060,-0.1489,1.3252,-12.57,32.10,0.79,-4.46,14.07,-1.34
40.188892,0.3496,0.0527,1.3408,14.59,16.24,19.10,-4.06,12.81,-1.19
40.249847,0.0371,-0.1006,1.2134,-16.91,45.47,3.78,-4.75,13.19,-1.12
40.249847,-0.0664,-0.1162,1.1841,-2.32,-10.68,5.92,-5.06,12.49,-1.09
40.278818,-0.0586,-0.0938,1.2314,9.95,-41.99,9.77,-5.11,11.01,-0.92
40.278818,-0.0239,-0.1025,1.2026,20.14,-63.48,10.07,-4.84,9.00,-0.67
40.309543,0.0693,-0.1016,1.2007,10.80,-42.54,12.63,-4.67,7.25,-0.37
40.309543,0.1382,0.0117,1.1602,70.62,-82.15,18.68,-3.88,5.34,-0.10
40.369685,0.0928,-0.0435,1.0957,2.69,0.18,9.34,-3.81,4.65,0.18
40.369685,0.0190,-0.0688,1.1138,8.79,-25.21,10.44,-3.75,3.77,0.35
40.398950,-0.2329,-0.3735,1.2378,59.39,-82.95,17.09,-3.55,2.53,0.64
40.398950,0.1826,0.0220,1.0229,25.45,-47.24,10.01,-2.61,0.52,1.07
40.428912,0.0684,-0.0376,1.0762,30.46,-69.52,2.38,-2.08,-1.21,1.18
40.428912,0.0811,-0.0347,1.1279,26.00,-56.40,4.82,-1.59,-2.87,1.26
40.488814,0.0762,-0.0288,1.0962,22.22,-39.98,10.38,-1.20,-4.09,1.41
40.488814,0.0713,0.0029,1.0142,28.99,-72.39,9.70,-0.79,-5.42,1.62
40.518745,0.0830,0.0000,1.0317,26.37,-76.23,11.66,-0.30,-7.17,1.81
40.518745,0.1240,-0.0024,1.0410,18.68,-58.96,15.69,0.05,-8.71,2.06
40.549805,-0.2480,-0.3906,1.0962,61.89,-91.00,31.68,0.41,-9.99,2.42
40.549805,0.3813,0.1719,0.8511,22.52,-39.00,28.87,1.57,-12.06,3.26
40.608824,0.1826,0.0347,0.9458,22.34,-64.15,15.93,1.94,-13.34,3.56
40.608824,0.2104,0.0322,0.9341,31.31,-81.36,15.87,2.32,-14.84,3.81
40.638836,0.2480,0.0474,0.9072,53.22,-134.16,12.08,3.09,-17.15,3.94
40.638836,0.2749,0.0522,0.9922,62.99,-131.23,12.51,4.21,-19.91,3.96
40.668763,0.2715,0.0527,0.8589,55.18,-95.95,16.78,5.37,-22.20,4.02
40.668763,0.3164,0.0615,0.7974,42.79,-78.19,19.47,6.20,-23.94,4.19
40.729025,0.3452,0.0713,0.7700,37.84,-59.69,21.73,6.84,-25.35,4.44
40.729025,0.3755,0.0771,0.6719,34.97,-60.36,24.66,7.36,-26.55,4.80
40.758788,0.4136,0.0688,0.6147,31.92,-69.82,21.91,7.84,-27.92,5.10
40.758788,0.4478,0.0732,0.5952,30.33,-87.22,16.36,8.33,-29.54,5.25
40.818946,0.4541,0.0620,0.6167,29.05,-78.67,14.47,8.87,-31.26,5.27
40.818946,0.4888,0.0620,0.5728,27.59,-60.85,14.65,9.35,-32.70,5.34
40.849382,0.4912,0.0767,0.4673,23.93,-57.50,13.85,9.77,-33.91,5.44
40.849382,0.5054,0.0781,0.4438,20.69,-56.40,12.15,10.15,-35.14,5.50
40.878898,0.5371,0.0786,0.4521,18.19,-50.11,11.17,10.44,-36.28,5.55
40.878898,0.5454,0.0801,0.4019,18.98,-38.82,11.35,10.73,-37.24,5.63
40.939256,0.5562,0.0532,0.3711,17.58,-38.57,13.49,10.98,-38.11,5.76
40.939256,0.6699,0.1055,0.3501,19.59,-29.91,11.11,11.27,-39.16,6.04
40.968819,0.6465,0.0811,0.2871,12.63,-19.41,5.80,11.55,-39.80,6.10
40.968819,0.6509,0.0864,0.2407,9.77,-19.59,2.38,11.76,-40.36,6.11
40.998848,0.6694,0.0928,0.2227,6.59,-10.50,0.43,11.89,-40.80,6.09
40.998848,0.6582,0.0967,0.1689,3.05,-7.75,-0.31,11.99,-41.13,6.07
41.058749,0.6802,0.0908,0.2100,-1.89,-2.01,-2.56,12.04,-41.46,6.01
41.058749,0.6733,0.0913,0.2407,-7.51,19.59,-3.66,11.94,-41.48,6.01
41.088757,0.6650,0.0884,0.2759,-10.80,38.88,-4.46,11.69,-41.13,6.10
41.088757,0.6724,0.0747,0.3442,-13.79,56.46,-7.08,11.34,-40.41,6.27
41.118779,0.6440,0.0732,0.4077,-15.50,71.53,-11.54,10.95,-39.36,6.42
41.118779,0.6040,0.0776,0.4590,-16.42,72.88,-13.67,10.57,-38.14,6.52
41.179887,0.5723,0.0913,0.4858,-14.28,72.14,-17.03,10.25,-36.92,6.54
41.179887,0.5117,0.0942,0.5459,-12.63,67.63,-19.04,10.05,-35.76,6.45
41.208987,0.4717,0.1055,0.5923,-11.54,75.01,-19.90,9.87,-34.52,6.34
41.208987,0.4863,0.1064,0.6309,-14.53,79.96,-22.09,9.63,-33.11,6.26
41.238894,0.4287,0.1289,0.6284,-13.61,70.92,-27.16,9.48,-31.73,6.04
41.238894,0.3740,0.1396,0.6899,-12.63,53.10,-28.20,9.39,-30.66,5.67
41.298918,0.3345,0.1411,0.6753,-5.00,60.12,-27.28,9.43,-29.65,5.29
41.298918,0.2666,0.1470,0.6475,-18.62,73.43,-22.64,9.33,-28.39,5.03
41.328996,0.2632,0.1250,0.7246,-21.12,62.81,-20.20,9.00,-27.11,4.86
41.328996,0.3052,0.0977,0.9326,-19.17,56.34,-20.94,8.70,-26.05,4.64
41.358977,0.3691,0.1113,1.0483,-17.03,79.53,-23.13,8.42,-24.74,4.44
41.358977,0.2949,0.1289,0.9204,-10.62,74.65,-27.28,8.25,-23.19,4.20
41.418636,0.2100,0.1572,0.8423,-7.45,63.78,-29.60,8.21,-21.85,3.83
41.418636,0.1108,0.1743,0.8301,-21.85,65.67,-24.17,8.06,-20.57,3.48
41.449705,0.1313,0.1709,0.9458,-23.80,57.25,-18.25,7.65,-19.34,3.26
41.449705,0.2485,0.1719,1.1387,-21.79,59.45,-17.40,7.25,-18.21,3.09
41.478609,0.2554,0.1675,1.1675,-19.65,81.24,-20.26,6.90,-16.77,2.92
41.478609,0.1924,0.1802,1.1196,-25.27,81.85,-19.59,6.51,-15.08,2.74
41.538652,0.1479,0.1621,1.1035,-38.88,79.47,-12.76,5.87,-13.43,2.64
41.538652,0.1743,0.1558,1.1968,-39.00,67.08,-7.69,5.06,-11.96,2.63
41.568645,0.1865,0.1367,1.2827,-26.55,60.42,-6.41,4.43,-10.72,2.61
41.568645,0.2305,0.1294,1.3091,-19.78,62.38,-6.29,3.97,-9.46,2.62
41.598651,0.2065,0.1255,1.2441,-13.00,52.80,-8.24,3.65,-8.27,2.58
41.598651,0.0864,0.1006,1.1460,-9.95,32.47,-5.07,3.44,-7.40,2.50
41.658774,0.0435,0.0879,1.1626,-9.77,15.62,2.69,3.25,-6.94,2.52
41.658774,0.1270,0.1089,1.2832,-9.16,17.64,7.02,3.04,-6.63,2.66
41.689009,0.2080,0.1191,1.3081,-3.54,32.78,3.36,2.89,-6.12,2.81
41.689009,0.1274,0.0933,1.1538,-4.82,45.47,0.00,2.83,-5.30,2.89
41.718945,0.0107,0.0503,0.9951,-12.21,32.35,1.83,2.66,-4.50,2.96
41.718945,-0.0527,0.0107,0.9829,-24.17,24.60,8.48,2.27,-3.93,3.10
41.779808,0.0923,0.0215,1.1509,-28.99,27.59,10.19,1.69,-3.41,3.35
41.779808,0.1587,0.0093,1.2061,-20.32,34.00,1.34,1.18,-2.78,3.49
41.808952,0.0801,-0.0044,1.1372,-21.06,38.76,-3.97,0.77,-2.00,3.48
41.808952,-0.0088,0.0000,1.1060,-22.03,24.29,-2.01,0.34,-1.35,3.43
41.839068,-0.0220,-0.0010,1.1255,-25.82,20.81,3.85,-0.16,-0.89,3.47
41.839068,0.0068,0.0054,1.1934,-25.02,24.84,7.69,-0.67,-0.46,3.60
41.899074,0.0811,-0.0068,1.1807,-19.17,31.31,4.52,-1.14,0.15,3.74
41.899074,0.0381,-0.0259,1.0908,-19.53,27.34,0.92,-1.51,0.77,3.78
41.929044,-0.0234,-0.0288,1.0532,-19.10,11.84,0.24,-1.91,1.14,3.86
41.929044,-0.0103,-0.0142,1.1279,-19.17,9.89,2.20,-2.31,1.30,3.97
41.958948,0.0332,0.0005,1.1797,-14.53,19.41,0.73,-2.67,1.60,4.08
41.958948,0.0215,-0.0103,1.1382,-11.78,25.57,-0.67,-2.94,2.07,4.16
42.018756,0.0054,-0.0161,1.1157,-8.61,17.88,-1.28,-3.16,2.50,4.22
42.018756,0.0063,-0.0205,1.1304,-7.32,15.20,-1.28,-3.35,2.83,4.28
42.049952,0.0088,-0.0210,1.1470,-3.72,9.77,-1.83,-3.46,3.05,4.34
42.049952,0.0029,-0.0259,1.1450,-4.70,12.45,-1.59,-3.55,3.26,4.39
42.078669,-0.0112,-0.0347,1.1489,-5.92,14.59,-1.77,-3.64,3.50,4.44
42.078669,-0.0063,-0.0396,1.1855,-8.91,17.15,-2.69,-3.80,3.81,4.48
42.138756,-0.0352,-0.0435,1.2007,-8.42,8.06,-2.81,-3.99,4.09,4.51
42.138756,-0.0381,-0.0454,1.2446,-7.57,4.88,-1.59,-4.16,4.19,4.54
42.169041,-0.0464,-0.0488,1.2876,-9.34,14.28,0.98,-4.31,4.33,4.60
42.169041,-0.0444,-0.0674,1.3047,-9.58,12.51,2.81,-4.49,4.60,4.70
42.228641,-0.0801,-0.0820,1.3179,-13.61,13.18,3.42,-4.72,4.86,4.82
42.228641,-0.1421,-0.0815,1.3350,-18.01,8.97,7.26,-5.02,5.05,4.97
42.258740,-0.1133,-0.0796,1.3315,-7.57,2.20,10.93,-5.30,5.23,5.21
42.258740,-0.1572,-0.1064,1.2910,-1.04,-9.58,14.77,-5.32,5.14,5.52
42.288951,-0.0869,-0.1187,1.2910,-1.34,-17.76,15.81,-5.33,4.87,5.91
42.288951,-0.0591,-0.1157,1.2505,7.57,-32.71,14.71,-5.23,4.39,6.28
42.379715,-0.0503,-0.1074,1.2300,11.35,-32.04,12.08,-4.98,3.72,6.62
42.379715,-0.0225,-0.0962,1.1846,6.77,-35.16,10.86,-4.82,3.10,6.94
42.381817,-0.0269,-0.0791,1.1855,16.42,-66.22,7.02,-4.58,2.08,7.22
42.381817,-0.0317,-0.0630,1.2407,25.21,-77.94,9.46,-4.19,0.67,7.47
42.409858,-0.0244,-0.0396,1.2573,32.29,-78.31,5.49,-3.57,-0.95,7.72
42.409858,-0.0146,-0.0425,1.2061,25.51,-66.77,5.68,-2.99,-2.40,7.92
42.468876,-0.0005,-0.0483,1.1816,16.78,-62.62,8.61,-2.61,-3.67,8.12
42.468876,-0.0063,-0.0381,1.1147,25.94,-68.73,8.36,-2.27,-4.89,8.37
42.498720,-0.0513,0.0024,1.0415,44.07,-98.63,-2.44,-1.49,-6.69,8.43
42.498720,-0.0303,0.0176,0.9541,43.82,-105.77,-0.37,-0.63,-8.71,8.40
42.528750,0.0034,0.0283,0.8779,34.97,-96.86,1.71,0.16,-10.70,8.39
42.528750,0.0493,0.0366,0.8315,23.86,-96.19,0.67,0.75,-12.63,8.36
42.589801,0.0664,0.0498,0.8970,22.09,-90.33,1.04,1.22,-14.52,8.28
42.589801,0.0747,0.0576,0.8477,25.82,-83.07,5.43,1.68,-16.14,8.27
42.618826,0.1084,0.0654,0.8267,33.51,-95.46,8.18,2.30,-17.97,8.27
42.618826,0.1675,0.0659,0.8091,35.22,-99.67,8.97,2.96,-19.91,8.30
42.649886,0.2080,0.0654,0.8379,37.41,-96.37,10.25,3.65,-21.81,8.32
42.649886,0.2358,0.0649,0.8438,39.98,-93.51,11.29,4.42,-23.70,8.32
42.709558,0.2793,0.0635,0.8750,43.09,-85.33,13.31,5.23,-25.49,8.34
42.709558,0.3413,0.0503,0.8506,39.79,-70.92,13.85,5.99,-27.01,8.39
42.738873,0.3687,0.0532,0.8164,43.21,-72.75,10.68,6.78,-28.41,8.41
42.738873,0.3760,0.0620,0.7222,47.36,-79.28,8.00,7.73,-29.93,8.30
42.769592,0.3984,0.0645,0.6230,46.75,-70.92,6.29,8.73,-31.41,8.11
42.769592,0.4116,0.0815,0.5269,45.96,-62.44,6.53,9.71,-32.68,7.93
42.829772,0.4277,0.0952,0.4009,45.65,-63.05,4.70,10.72,-33.90,7.70
42.829772,0.4604,0.1045,0.3330,40.77,-55.91,3.48,11.68,-35.05,7.43
42.859036,0.4849,0.1211,0.2754,38.94,-52.19,0.98,12.61,-36.07,7.10
42.859036,0.4995,0.1343,0.2261,33.63,-39.61,-0.18,13.49,-36.95,6.76
42.889779,0.4946,0.1509,0.1670,31.01,-30.21,-1.28,14.31,-37.60,6.42
42.889779,0.5078,0.1572,0.1021,18.68,-13.67,0.43,14.89,-37.99,6.20
42.950045,0.5322,0.1528,0.1152,5.49,-4.70,1.10,15.12,-38.14,6.10
42.950045,0.5493,0.1396,0.1675,-1.89,9.83,0.67,15.11,-38.10,6.08
42.979040,0.5688,0.1260,0.2437,-9.16,26.06,-0.49,14.90,-37.74,6.15
42.979040,0.5791,0.1104,0.3232,-13.24,40.16,-3.91,14.54,-37.07,6.27
43.009586,0.5688,0.0972,0.4146,-17.88,47.49,-7.02,14.14,-36.22,6.37
43.009586,0.5547,0.0967,0.5601,-19.29,60.49,-9.64,13.65,-35.12,6.47
43.069796,0.5522,0.1030,0.6294,-16.48,61.89,-11.72,13.21,-33.90,6.54
43.069796,0.5239,0.1245,0.6665,-13.55,68.85,-16.24,12.88,-32.60,6.55
43.098986,0.4448,0.1509,0.6240,-14.95,74.16,-18.86,12.59,-31.11,6.50
43.098986,0.3931,0.1807,0.6396,-16.72,72.75,-18.68,12.27,-29.61,6.45
43.128957,0.3569,0.1919,0.6650,-19.53,71.84,-17.27,11.91,-28.14,6.39
43.128957,0.3398,0.1968,0.7080,-24.54,70.19,-15.93,11.48,-26.72,6.35
43.189647,0.3110,0.1870,0.7183,-25.02,66.16,-14.53,10.98,-25.30,6.32
43.189647,0.3018,0.1562,0.8257,-27.89,48.16,-12.33,10.46,-24.16,6.27
43.221546,0.3594,0.1362,0.9854,-29.85,40.53,-12.27,9.90,-23.29,6.18
43.221546,0.3311,0.1309,0.9658,-28.50,40.34,-15.08,9.39,-22.46,6.03
43.251585,0.2627,0.1470,0.9614,-24.48,39.12,-16.17,8.92,-21.67,5.82
43.251585,0.1772,0.1602,0.8940,-23.56,51.03,-8.85,8.49,-20.72,5.70
43.311672,0.1953,0.1616,0.8267,-29.54,48.28,-4.39,7.96,-19.71,5.74
43.311672,0.2344,0.1416,0.8560,-43.03,36.87,-5.68,7.20,-18.85,5.78
43.339592,0.2241,0.1475,0.9404,-42.42,43.03,-11.29,6.36,-18.09,5.69
43.339592,0.1377,0.1411,0.9092,-40.22,51.15,-9.77,5.58,-17.12,5.59
43.368963,0.1157,0.1162,0.9570,-44.13,55.54,-4.52,4.74,-16.04,5.56
43.368963,0.1470,0.0781,1.0254,-47.36,45.41,0.00,3.81,-15.03,5.62
43.429826,0.2363,0.0479,1.1465,-46.26,42.60,0.00,2.85,-14.18,5.71
43.429826,0.2598,0.0283,1.1875,-37.35,43.76,-3.17,1.99,-13.32,5.75
43.459823,0.2583,0.0171,1.2319,-20.81,46.51,-8.36,1.43,-12.41,5.68
43.459823,0.2485,0.0366,1.2461,-11.60,52.43,-11.84,1.19,-11.40,5.53
43.488914,0.1982,0.0542,1.1860,-15.01,47.85,-12.70,0.93,-10.35,5.33
43.488914,0.1177,0.0459,1.0605,-27.04,37.41,-6.90,0.53,-9.46,5.19
43.550058,0.0459,0.0083,1.0244,-35.89,20.20,-0.06,-0.10,-8.89,5.15
43.550058,0.1460,0.0107,1.2080,-36.13,23.19,4.21,-0.86,-8.49,5.24
43.578948,0.2261,0.0127,1.2515,-23.07,43.76,0.18,-1.46,-7.79,5.31
43.578948,0.1797,-0.0068,1.1055,-21.06,49.19,-2.87,-1.87,-6.82,5.28
43.639642,0.0884,-0.0317,1.0205,-25.94,34.91,-4.27,-2.31,-5.98,5.22
43.639642,0.0605,-0.0381,1.1074,-35.64,28.50,0.61,-2.95,-5.35,5.20
43.668796,0.1382,-0.0259,1.2803,-29.85,33.75,0.43,-3.61,-4.76,5.22
43.668796,0.1543,-0.0327,1.2734,-20.69,42.30,-1.59,-4.10,-3.97,5.20
43.700000,0.1416,-0.0444,1.2090,-14.77,32.84,-2.69,-4.43,-3.20,5.15
43.700000,0.1196,-0.0591,1.1411,-13.00,19.35,-3.05,-4.70,-2.69,5.09
43.759609,0.0923,-0.0708,1.0923,-12.02,10.93,-1.16,-4.94,-2.41,5.06
43.759609,0.0693,-0.0708,1.0732,-9.95,-4.03,1.95,-5.16,-2.35,5.11
43.788797,0.0815,-0.0684,1.1152,-7.87,1.53,2.08,-5.34,-2.40,5.20
43.788797,0.0503,-0.0723,1.0859,-8.18,17.27,1.22,-5.49,-2.20,5.26
43.819573,0.0425,-0.0806,1.0820,-12.33,22.52,1.95,-5.69,-1.80,5.31
43.819573,0.0679,-0.0859,1.1382,-16.72,24.11,0.37,-6.00,-1.31,5.34
43.879676,0.0474,-0.0786,1.1714,-13.06,23.13,-0.85,-6.30,-0.83,5.34
43.879676,0.0195,-0.0762,1.1597,-10.86,21.85,0.18,-6.53,-0.38,5.34
43.908824,0.0151,-0.0879,1.1401,-10.99,16.60,1.59,-6.75,0.03,5.38
43.908824,0.0630,-0.1030,1.2104,-11.72,11.35,1.16,-6.97,0.27,5.45
43.939736,0.0820,-0.1040,1.2769,-7.93,8.00,-0.73,-7.17,0.49,5.48
43.939736,0.0698,-0.1016,1.3213,-4.70,-0.61,0.79,-7.27,0.54,5.53
43.999772,0.0771,-0.0972,1.3887,-5.80,-0.67,2.87,-7.38,0.52,5.62
43.999772,0.0737,-0.0962,1.4390,-7.02,5.37,4.88,-7.51,0.58,5.74
44.031695,0.0557,-0.1016,1.4614,-4.39,-7.39,6.16,-7.61,0.57,5.90
44.031695,0.0601,-0.1035,1.5269,-8.12,-1.22,8.24,-7.73,0.48,6.10
44.061716,0.0728,-0.1182,1.5615,0.43,-1.71,8.12,-7.86,0.52,6.30
44.061716,0.0381,-0.1357,1.5151,14.40,-14.83,7.63,-7.67,0.35,6.51
44.119806,0.0205,-0.1499,1.4194,12.45,-23.62,7.93,-7.37,-0.04,6.73
44.119806,0.0225,-0.1440,1.4087,4.88,-27.59,7.02,-7.21,-0.55,6.97
44.149336,-0.0288,-0.1328,1.3555,14.34,-37.84,5.98,-7.03,-1.19,7.18
44.149336,-0.0435,-0.1382,1.2104,22.16,-54.02,7.14,-6.65,-2.10,7.43
44.179823,0.0073,-0.1250,1.1924,31.56,-61.22,5.13,-6.13,-3.28,7.68
44.179823,-0.0024,-0.1079,1.1138,36.56,-52.92,3.17,-5.42,-4.43,7.87
44.240215,0.0073,-0.0845,1.0312,31.13,-44.56,2.20,-4.77,-5.36,8.00
44.240215,-0.0117,-0.0630,0.9751,31.98,-47.12,2.08,-4.13,-6.31,8.10
44.269020,0.0088,-0.0444,0.9268,37.96,-54.63,3.05,-3.44,-7.31,8.21
44.269020,0.0239,-0.0181,0.8525,43.70,-81.85,2.75,-2.61,-8.67,8.32
44.299827,0.0552,0.0029,0.8330,45.04,-114.26,4.64,-1.80,-10.65,8.45
44.299827,0.0547,0.0249,0.8291,36.56,-106.02,7.93,-1.00,-12.89,8.57
44.361637,0.0781,0.0371,0.8394,32.96,-102.72,12.02,-0.35,-14.97,8.75
44.361637,0.1357,0.0342,0.8965,27.65,-91.13,18.01,0.18,-16.93,9.01
44.389022,0.1899,0.0176,0.8887,31.13,-78.98,22.34,0.64,-18.59,9.38
44.389022,0.2456,0.0146,0.8872,40.16,-76.42,38.15,1.14,-20.23,9.99
44.419758,0.2319,0.0532,0.8994,95.21,-121.58,56.15,2.20,-22.27,10.76
44.419758,0.2432,0.0898,0.7979,56.15,-89.23,15.93,3.18,-23.91,11.26
44.479829,0.2510,0.0674,0.7617,59.94,-99.79,17.70,4.23,-25.76,11.43
44.479829,0.2886,0.0630,0.7358,71.11,-126.59,15.26,5.52,-28.04,11.47
44.510219,0.3335,0.0708,0.7295,79.65,-144.96,12.39,7.14,-30.87,11.29
44.510219,0.3701,0.0771,0.6924,72.39,-117.80,11.23,8.80,-33.52,11.00
44.539272,0.3950,0.0889,0.6479,64.51,-80.14,10.74,10.27,-35.49,10.75
44.539272,0.4219,0.1025,0.5454,59.20,-56.09,11.23,11.55,-36.79,10.61
44.599829,0.4409,0.1045,0.4536,54.08,-55.66,11.72,12.69,-37.88,10.51
44.599829,0.4658,0.1128,0.4619,52.73,-52.25,11.23,13.81,-38.99,10.37
44.629008,0.5044,0.1138,0.4082,46.57,-40.41,12.21,14.80,-39.91,10.29
44.629008,0.5469,0.1055,0.3281,41.75,-38.51,11.66,15.68,-40.74,10.22
44.659753,0.5889,0.1030,0.2729,35.58,-30.21,8.91,16.45,-41.45,10.14
44.659753,0.5781,0.1084,0.1665,28.63,-23.01,5.80,17.12,-41.98,10.03
44.719952,0.5723,0.1177,0.1226,20.14,-6.77,3.72,17.61,-42.30,9.94
44.719952,0.5679,0.1211,0.0752,11.35,8.30,2.44,17.85,-42.28,9.96
44.749290,0.5747,0.1162,0.0767,2.93,21.30,1.04,17.87,-42.01,10.07
44.749290,0.5713,0.1079,0.1001,-3.48,30.64,-1.16,17.69,-41.49,10.24
44.779044,0.5767,0.0962,0.1777,-10.25,44.43,-3.97,17.39,-40.78,10.42
44.779044,0.5786,0.0811,0.2407,-15.38,58.65,-8.67,16.95,-39.76,10.62
44.839076,0.5532,0.0742,0.3159,-22.52,71.78,-12.02,16.39,-38.44,10.83
44.839076,0.5601,0.0713,0.4487,-26.25,83.31,-15.99,15.73,-36.89,11.02
44.869805,0.5605,0.0752,0.5352,-27.77,98.08,-23.38,15.08,-35.05,11.15
44.869805,0.4819,0.0923,0.4917,-28.14,104.25,-30.40,14.49,-32.93,11.16
44.898957,0.4019,0.1167,0.5063,-35.52,106.38,-32.41,13.89,-30.75,11.06
44.898957,0.3662,0.1255,0.5659,-43.21,103.88,-32.53,13.15,-28.54,10.91
44.959863,0.3667,0.1309,0.6978,-43.70,95.64,-34.30,12.35,-26.50,10.69
44.959863,0.3110,0.1396,0.7251,-42.30,112.79,-38.09,11.62,-24.33,10.40
44.990303,0.2446,0.1465,0.7314,-45.84,123.60,-40.65,10.86,-21.83,10.11
44.990303,0.1621,0.1411,0.7607,-48.40,109.74,-42.48,10.04,-19.33,9.76
45.050066,0.0991,0.1499,0.9312,-60.12,98.45,-39.12,9.08,-17.17,9.32
45.050066,0.0801,0.1724,1.0884,-59.94,92.77,-34.67,7.97,-15.17,8.91
45.079010,0.0161,0.1621,1.0557,-57.80,105.71,-30.40,6.89,-13.13,8.56
45.079010,-0.0518,0.1543,1.0420,-56.64,107.36,-25.02,5.81,-10.89,8.32
45.108945,-0.0400,0.1235,1.1948,-58.59,97.78,-19.41,4.70,-8.83,8.12
45.108945,-0.0098,0.0918,1.2871,-58.84,86.36,-14.65,3.54,-6.95,8.00
45.169824,-0.0190,0.0747,1.2783,-56.40,80.75,-13.61,2.40,-5.27,7.87
45.169824,-0.0669,0.0586,1.2632,-48.71,67.63,-11.96,1.38,-3.82,7.71
45.199065,-0.0815,0.0503,1.2822,-40.53,59.02,-9.58,0.49,-2.51,7.58
45.199065,-0.0518,0.0312,1.3320,-34.73,52.37,-7.14,-0.24,-1.41,7.47
45.229757,-0.0112,0.0239,1.3911,-26.55,45.84,-5.49,-0.85,-0.42,7.39
45.229757,-0.0181,0.0249,1.3472,-16.78,44.98,-5.25,-1.28,0.51,7.32
45.289760,-0.0728,0.0146,1.2319,-13.18,25.76,-1.83,-1.55,1.19,7.28
45.289760,-0.0220,-0.0049,1.2231,-13.49,16.36,0.12,-1.83,1.58,7.31
45.318881,0.0024,-0.0059,1.2466,-12.39,16.11,0.98,-2.10,1.91,7.34
45.318881,0.0244,-0.0190,1.2021,-9.58,17.64,0.18,-2.32,2.26,7.39
45.349880,-0.0200,-0.0396,1.1060,-8.73,19.78,-2.69,-2.48,2.62,7.39
45.349880,-0.0684,-0.0327,1.0869,-21.67,21.55,-3.17,-2.77,3.02,7.37
45.409702,-0.0601,-0.0308,1.1147,-25.51,28.69,-3.85,-3.28,3.54,7.32
45.409702,-0.0884,-0.0479,1.0986,-19.90,24.41,-5.49,-3.75,4.08,7.25
45.438854,-0.0830,-0.0361,1.1973,-17.76,22.40,-5.37,-4.12,4.53,7.16
45.438854,-0.0337,-0.0283,1.2842,-12.70,23.68,-4.82,-4.44,5.00,7.10
45.469604,-0.0493,-0.0386,1.2505,-8.54,26.73,-5.37,-4.66,5.52,7.02
45.469604,-0.0645,-0.0371,1.2109,-4.33,24.78,-5.92,-4.80,6.02,6.94
45.529625,-0.1152,-0.0449,1.1436,-2.01,23.86,-3.97,-4.87,6.50,6.87
45.529625,-0.1235,-0.0557,1.0947,-4.46,26.55,-1.71,-4.94,7.00,6.84
45.558898,-0.1396,-0.0562,1.0835,-9.16,35.22,0.12,-5.07,7.61,6.86
45.558898,-0.1289,-0.0645,1.0669,-13.31,39.37,1.83,-5.32,8.41,6.90
45.589796,-0.1406,-0.0669,1.0786,-14.59,38.39,2.26,-5.60,9.18,6.95
45.589796,-0.1504,-0.0615,1.1074,-12.33,23.01,3.17,-5.86,9.76,7.03
45.650071,-0.1772,-0.0532,1.1440,-19.53,32.41,4.88,-6.16,10.32,7.14
45.650071,-0.1802,-0.0601,1.1680,-21.36,33.39,6.96,-6.60,11.07,7.27
45.678865,-0.1450,-0.0889,1.2432,-11.23,23.38,6.71,-6.89,11.58,7.43
45.678865,-0.1606,-0.0908,1.3022,-3.05,16.54,5.19,-7.01,11.99,7.58
45.709754,-0.1890,-0.0996,1.3550,-0.98,11.54,7.51,-7.04,12.32,7.73
45.709754,-0.1670,-0.1108,1.4316,9.83,0.73,7.14,-6.90,12.41,7.93
45.769654,-0.2021,-0.1235,1.4658,7.39,12.02,10.31,-6.66,12.50,8.14
45.769654,-0.2144,-0.1274,1.4756,0.43,29.17,13.18,-6.61,12.95,8.38
45.798920,-0.2344,-0.1089,1.3799,19.23,8.42,13.79,-6.41,13.48,8.67
45.798920,-0.2720,-0.1069,1.3955,44.19,-11.47,11.29,-5.65,13.35,8.98
45.829725,-0.2808,-0.0981,1.3896,49.50,17.58,15.38,-4.64,13.40,9.27
45.829725,-0.3350,-0.0767,1.2437,43.46,18.62,20.81,-3.60,13.85,9.67
45.889752,-0.3174,-0.0625,1.2344,29.85,-11.60,25.63,-2.77,13.98,10.19
45.889752,-0.2720,-0.0415,1.2979,18.19,-51.15,24.72,-2.17,13.32,10.78
45.918890,-0.2744,-0.0283,1.3057,19.47,-67.69,23.62,-1.70,12.09,11.31
45.918890,-0.2725,0.0063,1.2188,21.91,-81.67,21.00,-1.20,10.59,11.79
45.949878,-0.2407,0.0225,1.0947,21.06,-106.75,18.62,-0.69,8.67,12.22
45.949878,-0.1587,0.0371,1.0439,16.85,-121.28,10.74,-0.30,6.36,12.51
46.009545,-0.1831,0.0688,1.0259,20.39,-135.01,5.13,0.09,3.80,12.63
46.009545,-0.1387,0.0698,0.9688,21.48,-129.39,2.93,0.52,1.09,12.65
46.041547,-0.1152,0.0835,0.8765,12.27,-107.06,2.56,0.87,-1.24,12.63
46.041547,-0.0601,0.1001,0.8599,4.15,-90.94,0.37,1.03,-3.19,12.59
46.071561,-0.0391,0.0928,0.8364,-4.03,-91.55,0.31,1.03,-4.98,12.54
46.071561,-0.0215,0.1016,0.9409,2.38,-97.47,-1.46,1.00,-6.87,12.45
46.129694,0.0039,0.0962,0.9663,7.87,-87.34,3.97,1.13,-8.75,12.41
46.129694,0.0073,0.0933,0.8770,9.58,-89.29,8.12,1.32,-10.49,12.45
46.159629,0.1958,0.2271,0.9146,8.61,-76.48,27.34,1.60,-12.62,13.02
46.159629,0.0562,0.0850,0.8696,6.59,-73.49,9.70,1.68,-14.07,13.17
46.188840,-0.0239,-0.0542,0.9434,32.35,-99.37,54.87,1.83,-15.64,13.56
46.188840,0.1641,0.1167,0.8071,21.00,-83.44,10.80,2.05,-17.05,14.04
46.249861,0.1348,0.0557,0.8315,24.66,-100.65,8.48,2.53,-19.02,14.07
46.249861,0.1416,0.0259,0.7954,20.26,-83.92,10.68,2.99,-20.90,14.09
46.279183,0.2085,-0.0010,0.7539,14.22,-70.43,14.47,3.29,-22.47,14.22
46.279183,0.2295,-0.0156,0.7749,15.75,-57.25,19.96,3.48,-23.75,14.44
46.309514,0.2261,-0.0571,0.7568,17.94,-34.18,46.51,3.57,-24.71,14.99
