t,ax,ay,az,gx,gy,gz,wx,wy,wz
-0.015347,0.0015,0.0630,1.0015,0.00,0.00,-0.06,-1.46,0.78,0.00
-0.015347,0.0024,0.0630,1.0015,0.00,0.00,0.00,-1.46,0.78,0.00
0.013801,0.0020,0.0635,1.0029,0.00,0.00,-0.06,-1.46,0.78,0.00
0.013801,0.0034,0.0635,1.0020,0.00,0.00,0.00,-1.46,0.78,0.00
0.043969,0.0034,0.0630,1.0010,0.00,0.00,-0.06,-1.46,0.78,0.00
0.043969,0.0039,0.0630,1.0024,0.00,0.00,-0.06,-1.46,0.78,0.00
0.103285,0.0024,0.0630,1.0029,0.00,0.00,0.00,2.15,0.63,48.99
0.103285,0.0029,0.0620,1.0020,0.06,0.00,-0.06,2.15,0.63,48.98
0.133964,0.0029,0.0625,1.0020,0.06,0.00,0.00,2.16,0.63,48.98
0.133964,0.0029,0.0630,1.0010,0.06,0.00,0.00,2.16,0.63,48.98
0.163099,0.0020,0.0625,1.0010,0.00,0.00,0.00,2.16,0.63,48.98
0.163099,0.0024,0.0635,1.0020,0.00,0.00,0.00,2.16,0.63,48.98
0.224777,0.0029,0.0630,1.0020,0.00,0.00,0.00,2.16,0.63,48.98
0.224777,0.0020,0.0630,1.0015,0.00,0.00,0.00,2.16,0.63,48.98
0.253135,0.0020,0.0630,1.0010,0.06,0.00,0.00,2.16,0.64,48.98
0.253135,0.0020,0.0635,1.0015,0.00,0.00,-0.06,2.16,0.64,48.98
0.285984,0.0020,0.0635,1.0024,0.06,0.00,0.00,2.16,0.64,48.98
0.285984,0.0015,0.0635,1.0020,0.00,0.00,0.00,2.16,0.64,48.98
0.344053,0.0015,0.0630,1.0015,0.06,0.00,-0.06,2.16,0.64,48.98
0.344053,0.0005,0.0630,1.0010,0.00,0.00,0.00,2.16,0.64,48.98
0.373181,0.0010,0.0630,1.0020,0.00,0.00,0.00,1.40,0.05,49.22
0.373181,0.0020,0.0630,1.0020,0.00,0.00,0.00,1.68,0.31,49.32
0.403985,0.0015,0.0630,1.0024,0.00,0.00,0.00,1.87,0.47,49.40
0.403985,0.0015,0.0630,1.0020,0.00,0.00,0.00,1.96,0.54,49.47
0.464093,0.0020,0.0625,1.0020,0.00,0.00,0.00,2.01,0.58,49.53
0.464093,0.0020,0.0630,1.0024,0.06,0.00,-0.06,2.04,0.60,49.58
0.495931,0.0015,0.0625,1.0020,0.00,0.00,0.00,2.05,0.61,49.62
0.495931,0.0015,0.0630,1.0015,0.00,0.00,0.00,2.07,0.62,49.66
0.525532,0.0024,0.0630,1.0020,0.00,-0.06,0.00,2.08,0.62,49.70
0.525532,0.0024,0.0625,1.0020,0.00,0.00,0.00,2.08,0.62,49.74
0.583996,0.0020,0.0620,1.0024,0.00,0.00,-0.12,2.09,0.62,49.76
0.583996,0.0034,0.0620,1.0024,0.00,0.00,-0.06,2.09,0.63,49.80
0.613169,0.0029,0.0630,1.0020,0.00,0.00,0.00,2.09,0.62,49.82
0.613169,0.0029,0.0625,1.0029,0.00,0.00,0.00,2.09,0.62,49.84
0.643880,0.0029,0.0630,1.0024,0.00,0.00,0.00,2.09,0.62,49.87
0.643880,0.0039,0.0630,1.0024,0.00,0.00,0.00,2.10,0.62,49.89
0.704014,0.0029,0.0630,1.0029,0.00,0.00,0.00,2.10,0.62,49.91
0.704014,0.0020,0.0640,1.0029,0.00,0.00,-0.06,2.10,0.62,49.93
0.733206,0.0029,0.0630,1.0024,0.00,0.00,0.00,2.10,0.62,49.95
0.733206,0.0029,0.0635,1.0029,0.00,0.00,0.00,2.11,0.62,49.97
0.793923,0.0024,0.0630,1.0015,0.00,0.00,-0.06,2.11,0.61,49.99
0.793923,0.0015,0.0630,1.0024,0.00,0.00,-0.06,2.11,0.62,50.00
0.824141,0.0015,0.0625,1.0024,0.00,0.00,0.00,2.11,0.62,50.02
0.824141,0.0005,0.0625,1.0010,0.00,0.00,0.00,2.11,0.62,50.03
0.853224,0.0015,0.0620,1.0020,0.00,0.06,0.00,2.11,0.62,50.05
0.853224,0.0015,0.0635,1.0020,0.00,0.00,0.00,2.11,0.62,50.06
0.913970,0.0010,0.0640,1.0010,0.00,0.00,-0.06,2.11,0.63,50.08
0.913970,0.0020,0.0635,1.0020,0.00,0.00,0.00,2.11,0.63,50.09
0.943151,0.0015,0.0630,1.0015,0.00,0.00,0.00,2.12,0.63,50.10
0.943151,0.0015,0.0630,1.0010,0.00,0.00,-0.06,2.12,0.63,50.11
0.973171,0.0015,0.0625,1.0020,0.00,0.00,-0.06,2.12,0.63,50.13
0.973171,0.0010,0.0630,1.0020,0.00,0.00,-0.06,2.13,0.63,50.14
1.033988,0.0015,0.0630,1.0024,0.00,0.00,0.00,2.13,0.64,50.14
1.033988,0.0020,0.0625,1.0029,0.00,0.00,0.00,2.13,0.64,50.15
1.063285,0.0020,0.0635,1.0024,0.00,0.00,-0.06,2.13,0.64,50.16
1.063285,0.0020,0.0630,1.0020,0.00,0.00,0.00,2.13,0.64,50.17
1.093106,0.0024,0.0635,1.0015,0.00,0.00,0.00,2.13,0.64,50.18
1.093106,0.0024,0.0635,1.0024,0.00,0.00,0.00,2.13,0.64,50.19
1.154007,0.0024,0.0630,1.0020,0.00,0.00,0.00,2.13,0.64,50.20
1.154007,0.0020,0.0625,1.0029,0.00,0.00,0.00,2.13,0.64,50.20
1.183190,0.0034,0.0620,1.0020,0.00,0.00,-0.06,2.13,0.64,50.21
1.183190,0.0029,0.0625,1.0020,0.00,0.00,-0.06,2.13,0.64,50.22
1.214052,0.0020,0.0630,1.0024,0.06,0.00,-0.06,2.13,0.64,50.22
1.214052,0.0034,0.0630,1.0024,0.00,0.00,0.00,2.13,0.64,50.23
1.273962,0.0020,0.0625,1.0029,0.00,0.00,0.00,2.13,0.64,50.23
1.273962,0.0020,0.0635,1.0024,0.00,0.00,0.00,2.13,0.64,50.24
1.303033,0.0020,0.0640,1.0020,0.00,0.00,-0.06,2.13,0.64,50.25
1.303033,0.0024,0.0630,1.0015,0.00,0.00,0.00,2.13,0.64,50.26
1.334061,0.0024,0.0630,1.0015,0.00,0.00,0.00,2.13,0.64,50.26
1.334061,0.0024,0.0630,1.0024,0.00,0.00,-0.06,2.13,0.64,50.27
1.393975,0.0024,0.0625,1.0029,0.00,0.00,-0.06,2.13,0.64,50.27
1.393975,0.0020,0.0630,1.0024,0.00,0.00,0.00,2.13,0.64,50.28
1.423399,0.0015,0.0630,1.0020,0.00,0.00,0.00,2.13,0.64,50.28
1.423399,0.0010,0.0630,1.0015,0.06,0.06,-0.06,2.13,0.64,50.28
1.453172,0.0015,0.0640,1.0020,0.00,0.00,-0.06,2.13,0.64,50.29
1.453172,0.0015,0.0630,1.0029,0.00,0.00,0.00,2.13,0.64,50.30
1.514016,0.0015,0.0625,1.0020,0.00,0.00,-0.06,2.13,0.64,50.30
1.514016,0.0024,0.0630,1.0020,0.00,0.00,0.00,2.13,0.64,50.31
1.543221,0.0015,0.0625,1.0020,0.00,0.00,0.00,2.14,0.64,50.31
1.543221,0.0015,0.0625,1.0024,0.00,0.00,-0.06,2.14,0.64,50.32
1.575894,0.0020,0.0635,1.0005,0.06,0.00,0.00,2.14,0.64,50.32
1.575894,0.0015,0.0635,1.0015,0.00,0.00,-0.06,2.14,0.64,50.32
1.635928,0.0020,0.0625,1.0015,0.00,0.00,0.00,2.14,0.64,50.33
1.635928,0.0029,0.0630,1.0029,0.00,0.00,0.00,2.14,0.64,50.33
1.664248,0.0024,0.0630,1.0024,0.06,0.00,0.00,2.14,0.64,50.33
1.664248,0.0029,0.0630,1.0020,0.00,0.00,0.00,2.14,0.64,50.34
1.693043,0.0020,0.0625,1.0024,0.00,0.00,0.00,2.14,0.64,50.34
1.693043,0.0024,0.0640,1.0024,0.00,0.00,0.00,2.14,0.64,50.34
1.753966,0.0029,0.0635,1.0015,0.00,0.00,0.00,2.14,0.64,50.35
1.753966,0.0024,0.0635,1.0020,0.00,0.00,-0.06,2.14,0.64,50.35
1.783294,0.0024,0.0625,1.0015,0.00,0.00,0.00,2.14,0.64,50.36
1.783294,0.0029,0.0630,1.0029,0.00,0.00,-0.06,2.14,0.64,50.36
1.812977,0.0034,0.0635,1.0020,0.00,0.00,0.00,2.14,0.64,50.36
1.812977,0.0029,0.0635,1.0024,0.06,0.00,-0.06,2.14,0.64,50.37
1.873941,0.0029,0.0635,1.0024,0.00,0.00,0.00,2.14,0.64,50.37
1.873941,0.0024,0.0630,1.0020,0.00,0.00,0.00,2.14,0.64,50.37
1.903063,0.0020,0.0625,1.0015,0.00,0.00,0.00,2.14,0.64,50.37
1.903063,0.0029,0.0630,1.0015,0.00,0.00,0.00,2.14,0.64,50.37
1.933878,0.0015,0.0630,1.0020,0.00,0.00,0.00,2.14,0.64,50.38
1.933878,0.0020,0.0620,1.0024,0.00,0.00,-0.06,2.14,0.64,50.38
1.993946,0.0020,0.0625,1.0029,0.00,0.00,0.00,2.14,0.64,50.38
1.993946,0.0020,0.0625,1.0020,0.00,0.00,0.00,2.14,0.64,50.38
2.023427,0.0015,0.0625,1.0015,0.06,0.00,0.00,2.14,0.64,50.39
2.023427,0.0015,0.0635,1.0015,0.00,0.00,-0.06,2.14,0.64,50.39
2.053858,0.0015,0.0635,1.0015,0.00,0.00,0.00,2.14,0.64,50.39
2.053858,0.0010,0.0630,1.0015,0.00,0.00,0.00,2.14,0.64,50.39
2.113245,0.0024,0.0640,1.0020,0.00,0.00,-0.06,2.14,0.64,50.40
2.113245,0.0010,0.0635,1.0024,0.00,0.00,0.00,2.14,0.64,50.40
2.143923,0.0029,0.0630,1.0024,0.00,0.00,0.00,2.14,0.64,50.40
2.143923,0.0020,0.0630,1.0024,0.00,0.00,-0.06,2.14,0.64,50.41
2.203123,0.0020,0.0625,1.0020,0.06,0.00,0.00,2.14,0.64,50.41
2.203123,0.0024,0.0630,1.0020,0.00,0.00,0.00,2.14,0.64,50.41
2.233923,0.0024,0.0630,1.0015,0.00,0.00,0.00,2.14,0.64,50.41
2.233923,0.0029,0.0630,1.0015,0.00,0.00,-0.12,2.14,0.64,50.41
2.263126,0.0024,0.0625,1.0015,0.00,-0.06,-0.06,2.14,0.64,50.42
2.263126,0.0024,0.0630,1.0005,0.00,0.00,0.00,2.14,0.64,50.42
2.324788,0.0024,0.0635,1.0010,0.00,0.00,-0.06,2.14,0.64,50.42
2.324788,0.0020,0.0635,1.0015,0.06,0.00,-0.06,2.14,0.64,50.42
2.356007,0.0029,0.0630,1.0020,0.06,0.00,-0.12,2.14,0.64,50.42
2.356007,0.0029,0.0630,1.0020,0.00,0.00,0.00,2.14,0.64,50.42
2.385828,0.0029,0.0630,1.0024,0.00,0.00,0.00,2.14,0.64,50.43
2.385828,0.0029,0.0630,1.0015,0.00,0.00,0.00,2.14,0.64,50.43
2.443969,0.0024,0.0635,1.0010,0.00,0.00,0.00,2.14,0.64,50.43
2.443969,0.0010,0.0625,1.0005,0.00,0.00,0.00,2.14,0.64,50.43
2.475328,0.0020,0.0625,1.0024,0.00,0.00,0.00,2.14,0.64,50.43
2.475328,0.0015,0.0635,1.0020,0.00,0.00,0.00,2.14,0.64,50.43
2.503358,0.0015,0.0630,1.0024,0.00,0.00,-0.06,2.14,0.64,50.44
2.503358,0.0020,0.0625,1.0024,0.00,0.00,0.00,2.14,0.64,50.44
2.564583,0.0020,0.0630,1.0020,0.06,0.00,0.00,2.14,0.64,50.44
2.564583,0.0024,0.0630,1.0010,0.06,0.00,0.00,2.14,0.64,50.44
2.593133,0.0024,0.0625,1.0020,0.06,0.00,-0.06,2.14,0.64,50.44
2.593133,0.0024,0.0640,1.0015,0.00,0.00,-0.06,2.14,0.64,50.44
2.623432,0.0024,0.0630,1.0010,0.00,0.00,0.00,2.14,0.64,50.44
2.623432,0.0024,0.0630,1.0015,0.00,0.00,-0.06,2.14,0.64,50.44
2.683950,0.0024,0.0635,1.0015,0.00,0.00,-0.06,2.14,0.64,50.45
2.683950,0.0024,0.0630,1.0020,0.00,0.00,0.00,2.14,0.64,50.45
2.713181,0.0029,0.0625,1.0020,0.00,0.00,0.00,2.14,0.64,50.45
2.713181,0.0029,0.0630,1.0020,0.00,0.00,-0.06,2.14,0.64,50.45
2.743858,0.0029,0.0630,1.0029,0.00,0.00,-0.06,2.14,0.64,50.45
2.743858,0.0024,0.0620,1.0020,0.00,0.00,0.00,2.14,0.64,50.45
2.803846,0.0024,0.0620,1.0020,0.00,0.00,-0.06,2.14,0.64,50.45
2.803846,0.0020,0.0625,1.0020,0.00,0.00,-0.06,2.14,0.64,50.45
2.833065,0.0024,0.0630,1.0020,0.00,0.00,0.00,2.14,0.64,50.46
2.833065,0.0015,0.0630,1.0024,0.00,0.00,0.00,2.14,0.64,50.46
2.863839,0.0020,0.0635,1.0024,0.00,0.00,0.00,2.14,0.64,50.46
2.863839,0.0024,0.0625,1.0024,0.00,0.00,0.00,2.14,0.64,50.46
2.924314,0.0020,0.0625,1.0024,0.00,0.00,0.00,2.14,0.64,50.46
2.924314,0.0010,0.0625,1.0024,0.06,0.00,0.00,2.14,0.64,50.47
2.953142,0.0020,0.0630,1.0029,0.00,0.00,0.00,2.14,0.64,50.47
2.953142,0.0029,0.0630,1.0024,0.06,0.00,-0.06,2.14,0.64,50.47
2.983856,0.0024,0.0630,1.0029,0.00,0.00,0.00,2.14,0.64,50.47
2.983856,0.0024,0.0620,1.0024,0.00,0.00,-0.06,2.14,0.64,50.47
3.043214,0.0015,0.0635,1.0029,0.00,0.00,0.00,2.14,0.64,50.47
3.043214,0.0020,0.0630,1.0015,0.00,0.00,0.00,2.14,0.64,50.47
3.073869,0.0015,0.0630,1.0024,0.06,0.00,-0.06,2.14,0.64,50.47
3.073869,0.0024,0.0625,1.0034,0.00,0.00,0.00,2.14,0.64,50.47
3.103253,0.0020,0.0635,1.0020,0.00,0.00,0.00,2.14,0.64,50.48
3.103253,0.0024,0.0625,1.0015,0.00,0.00,0.00,2.14,0.64,50.48
3.163988,0.0015,0.0625,1.0024,0.00,0.00,0.00,2.14,0.64,50.48
3.163988,0.0015,0.0625,1.0020,0.00,0.00,0.00,2.14,0.64,50.48
3.193099,0.0024,0.0625,1.0020,0.00,-0.06,0.00,2.14,0.64,50.48
3.193099,0.0024,0.0620,1.0024,0.00,0.00,-0.06,2.14,0.64,50.48
3.224571,0.0024,0.0620,1.0015,0.00,0.00,-0.06,2.14,0.64,50.48
3.224571,0.0010,0.0635,1.0020,0.00,0.00,-0.06,2.14,0.64,50.48
3.283976,0.0029,0.0625,1.0020,0.00,0.00,-0.06,2.14,0.64,50.48
3.283976,0.0029,0.0630,1.0024,0.00,0.00,0.00,2.14,0.64,50.48
3.313096,0.0020,0.0630,1.0024,0.06,0.00,0.00,2.14,0.64,50.48
3.313096,0.0020,0.0630,1.0015,0.00,0.00,-0.06,2.14,0.64,50.48
3.343890,0.0020,0.0635,1.0024,0.00,0.00,-0.06,2.14,0.64,50.49
3.343890,0.0020,0.0635,1.0024,0.00,0.00,0.00,2.14,0.64,50.49
3.404000,0.0024,0.0620,1.0020,0.00,0.00,0.00,2.14,0.64,50.49
3.404000,0.0029,0.0625,1.0029,0.00,0.00,-0.06,2.14,0.64,50.49
3.433092,0.0024,0.0625,1.0024,0.06,0.00,0.00,2.14,0.64,50.49
3.433092,0.0020,0.0620,1.0024,0.00,0.00,-0.06,2.14,0.64,50.49
3.463901,0.0024,0.0630,1.0024,0.00,0.00,-0.06,2.14,0.64,50.49
3.463901,0.0020,0.0620,1.0024,0.00,0.00,0.00,2.14,0.64,50.49
3.523494,0.0020,0.0635,1.0010,0.06,0.00,0.00,2.14,0.64,50.49
3.523494,0.0024,0.0630,1.0024,0.00,0.00,0.00,2.14,0.64,50.49
3.553160,0.0020,0.0625,1.0015,0.00,0.00,0.00,2.14,0.64,50.49
3.553160,0.0024,0.0620,1.0005,0.00,0.00,0.00,2.14,0.64,50.49
3.613873,0.0020,0.0630,1.0020,0.00,0.00,0.00,2.14,0.64,50.49
3.613873,0.0024,0.0630,1.0010,0.06,0.00,0.00,2.14,0.64,50.50
3.643180,0.0024,0.0625,1.0015,0.00,0.00,-0.06,2.14,0.64,50.50
3.643180,0.0024,0.0625,1.0024,0.00,0.00,0.00,2.14,0.64,50.50
3.673936,0.0020,0.0625,1.0024,0.00,0.00,-0.06,2.14,0.64,50.50
3.673936,0.0024,0.0625,1.0034,0.06,0.00,0.00,2.14,0.64,50.50
3.734015,0.0015,0.0640,1.0024,0.00,0.00,0.00,2.14,0.64,50.50
3.734015,0.0020,0.0635,1.0024,0.00,0.00,0.00,2.14,0.64,50.50
3.763225,0.0020,0.0635,1.0020,0.06,0.00,0.00,2.14,0.64,50.50
3.763225,0.0020,0.0630,1.0024,0.00,0.00,0.00,2.14,0.64,50.50
3.793816,0.0024,0.0625,1.0020,0.06,0.00,-0.06,2.14,0.64,50.50
3.793816,0.0029,0.0635,1.0020,0.00,0.00,0.00,2.14,0.64,50.50
3.854207,0.0024,0.0630,1.0020,0.00,0.00,0.00,2.14,0.64,50.50
3.854207,0.0024,0.0635,1.0020,0.00,0.00,0.00,2.14,0.64,50.50
3.885946,0.0015,0.0625,1.0015,0.00,0.00,0.00,2.14,0.64,50.50
3.885946,0.0020,0.0625,1.0024,0.00,0.00,-0.06,2.14,0.64,50.50
3.915818,0.0020,0.0630,1.0015,0.06,0.00,0.00,2.14,0.64,50.51
3.915818,0.0034,0.0630,1.0024,0.00,0.00,0.00,2.14,0.64,50.51
3.973924,0.0015,0.0625,1.0034,0.00,0.00,-0.06,2.14,0.64,50.51
3.973924,0.0020,0.0635,1.0020,0.00,0.00,0.00,2.14,0.64,50.51
4.003898,0.0015,0.0635,1.0020,0.00,0.00,0.00,2.14,0.64,50.51
4.003898,0.0015,0.0620,1.0015,0.00,0.00,0.00,2.14,0.64,50.51
4.033079,0.0024,0.0625,1.0024,0.00,0.00,-0.06,2.14,0.64,50.51
4.033079,0.0029,0.0630,1.0020,0.00,0.00,-0.06,2.14,0.64,50.51
4.093175,0.0015,0.0630,1.0024,0.00,0.00,0.00,2.14,0.64,50.51
4.093175,0.0015,0.0620,1.0029,0.00,0.00,0.00,2.14,0.64,50.52
4.123376,0.0015,0.0625,1.0024,0.06,0.00,0.00,2.14,0.64,50.52
4.123376,0.0020,0.0630,1.0020,0.00,0.00,0.00,2.14,0.64,50.52
4.153892,0.0029,0.0635,1.0024,0.06,0.00,-0.06,2.14,0.64,50.52
4.153892,0.0024,0.0625,1.0015,0.00,0.00,0.00,2.14,0.64,50.52
4.214118,0.0029,0.0635,1.0029,0.00,0.00,0.00,2.14,0.64,50.52
4.214118,0.0020,0.0630,1.0024,0.00,0.00,0.00,2.14,0.64,50.52
4.243147,0.0024,0.0625,1.0020,0.00,0.00,-0.06,2.14,0.64,50.52
4.243147,0.0029,0.0625,1.0024,0.00,0.00,-0.06,2.14,0.64,50.52
4.273861,0.0029,0.0630,1.0024,0.00,0.00,-0.06,2.14,0.64,50.52
4.273861,0.0024,0.0630,1.0034,0.00,0.00,-0.06,2.14,0.64,50.52
4.333916,0.0020,0.0630,1.0020,0.00,0.00,0.00,2.14,0.64,50.52
4.333916,0.0020,0.0625,1.0015,0.00,0.00,0.00,2.14,0.64,50.52
4.363292,0.0029,0.0625,1.0020,0.00,0.00,0.00,2.14,0.64,50.52
4.363292,0.0029,0.0630,1.0024,0.00,0.00,-0.06,2.14,0.64,50.52
4.393895,0.0015,0.0635,1.0024,0.00,0.00,-0.06,2.14,0.64,50.52
4.393895,0.0024,0.0625,1.0034,0.00,0.00,-0.06,2.14,0.64,50.52
4.454349,0.0020,0.0630,1.0029,0.06,0.00,0.00,2.14,0.64,50.52
4.454349,0.0020,0.0625,1.0020,0.00,0.00,-0.06,2.14,0.64,50.52
4.483297,0.0024,0.0635,1.0020,0.06,0.00,0.00,2.14,0.64,50.52
4.483297,0.0029,0.0630,1.0020,0.00,0.00,0.00,2.14,0.64,50.53
4.513201,0.0020,0.0630,1.0015,0.00,0.00,0.00,2.14,0.64,50.53
4.513201,0.0015,0.0620,1.0020,0.00,0.00,0.00,2.14,0.64,50.53
4.574035,0.0024,0.0635,1.0005,0.00,0.00,-0.06,2.14,0.64,50.53
4.574035,0.0020,0.0630,1.0005,0.00,0.00,-0.06,2.14,0.64,50.53
4.603019,0.0039,0.0635,1.0015,0.00,0.00,-0.12,2.14,0.64,50.53
4.603019,0.0015,0.0635,1.0024,0.00,0.00,0.00,2.14,0.64,50.53
4.633892,0.0024,0.0635,1.0020,0.00,0.00,-0.12,2.14,0.64,50.53
4.633892,0.0020,0.0640,1.0024,0.00,0.00,0.00,2.14,0.64,50.53
4.693934,0.0020,0.0630,1.0024,0.00,0.00,0.00,2.14,0.64,50.53
4.693934,0.0020,0.0625,1.0024,0.00,0.00,-0.06,2.14,0.64,50.53
4.723478,0.0024,0.0625,1.0034,0.00,0.00,-0.06,2.14,0.64,50.53
4.723478,0.0020,0.0620,1.0024,0.06,0.00,0.00,2.14,0.64,50.53
4.753878,0.0029,0.0620,1.0020,0.00,0.00,0.00,2.14,0.64,50.53
4.753878,0.0024,0.0625,1.0020,0.00,0.00,0.00,2.14,0.64,50.53
4.813875,0.0024,0.0625,1.0020,0.06,0.00,0.00,2.14,0.64,50.53
4.813875,0.0029,0.0625,1.0020,0.00,0.00,-0.06,2.14,0.64,50.53
4.843073,0.0020,0.0620,1.0015,0.00,0.00,-0.06,2.14,0.64,50.53
4.843073,0.0024,0.0625,1.0024,0.00,0.00,0.00,2.14,0.64,50.53
4.873780,0.0020,0.0630,1.0020,0.00,0.00,-0.12,2.14,0.64,50.53
4.873780,0.0020,0.0630,1.0020,0.00,0.00,0.00,2.14,0.64,50.53
4.933946,0.0020,0.0630,1.0015,0.00,0.00,0.00,2.14,0.64,50.53
4.933946,0.0020,0.0635,1.0024,0.00,0.00,0.00,2.14,0.64,50.53
4.963105,0.0034,0.0630,1.0024,0.00,0.00,0.00,2.14,0.64,50.53
4.963105,0.0020,0.0625,1.0024,0.00,0.00,-0.06,2.14,0.64,50.53
5.024276,0.0020,0.0630,1.0024,0.00,0.00,-0.06,2.14,0.64,50.54
5.024276,0.0024,0.0630,1.0024,0.00,0.00,0.00,2.14,0.64,50.54
5.053181,0.0024,0.0630,1.0029,0.00,0.00,-0.06,2.14,0.64,50.54
5.053181,0.0020,0.0630,1.0020,0.00,0.00,-0.12,2.14,0.64,50.54
5.083299,0.0024,0.0620,1.0015,0.00,0.00,0.00,2.14,0.64,50.54
5.083299,0.0029,0.0625,1.0024,0.06,0.00,0.00,2.14,0.64,50.54
5.144021,0.0020,0.0635,1.0020,0.00,0.00,0.00,2.14,0.64,50.54
5.144021,0.0029,0.0635,1.0029,0.00,0.00,0.00,2.14,0.64,50.54
5.173085,0.0015,0.0630,1.0020,0.00,0.00,0.00,2.14,0.64,50.54
5.173085,0.0015,0.0630,1.0015,0.00,0.00,-0.12,2.14,0.64,50.54
5.203213,0.0020,0.0635,1.0020,0.06,0.00,0.00,2.14,0.64,50.54
5.203213,0.0029,0.0630,1.0020,0.06,0.00,0.00,2.14,0.64,50.54
5.263978,0.0029,0.0625,1.0020,0.00,0.00,0.00,2.14,0.64,50.54
5.263978,0.0024,0.0625,1.0034,0.06,0.00,-0.06,2.14,0.64,50.54
5.293166,0.0029,0.0635,1.0029,0.06,0.00,-0.06,2.14,0.64,50.54
5.293166,0.0024,0.0630,1.0029,0.00,0.00,0.00,2.14,0.64,50.54
5.324130,0.0015,0.0620,1.0034,0.00,0.00,0.00,2.14,0.64,50.54
5.324130,0.0020,0.0630,1.0024,0.00,0.00,-0.06,2.14,0.64,50.54
5.383906,0.0020,0.0620,1.0034,0.00,0.00,-0.06,2.14,0.64,50.54
5.383906,0.0020,0.0620,1.0029,0.00,0.00,0.00,2.14,0.64,50.54
5.413242,0.0024,0.0635,1.0024,0.00,0.00,-0.06,2.14,0.64,50.54
5.413242,0.0015,0.0630,1.0020,0.00,0.00,0.00,2.14,0.64,50.54
5.443875,0.0024,0.0625,1.0024,0.00,0.00,-0.06,2.14,0.64,50.54
5.443875,0.0024,0.0625,1.0015,0.00,0.00,0.00,2.14,0.64,50.54
5.503995,0.0020,0.0630,1.0010,0.00,0.00,-0.12,2.14,0.64,50.54
5.503995,0.0024,0.0625,1.0020,0.00,-0.06,0.00,2.14,0.64,50.54
5.533122,0.0020,0.0630,1.0020,0.00,0.00,0.00,2.14,0.64,50.54
5.533122,0.0010,0.0630,1.0024,0.06,0.00,-0.12,2.14,0.64,50.54
5.563985,0.0029,0.0630,1.0034,0.00,0.00,-0.06,2.14,0.64,50.54
5.563985,0.0024,0.0630,1.0029,0.00,0.00,-0.06,2.14,0.64,50.54
5.624154,0.0020,0.0635,1.0020,0.00,0.00,-0.06,2.14,0.64,50.54
5.624154,0.0020,0.0635,1.0020,0.06,0.00,-0.06,2.14,0.64,50.55
5.653186,0.0020,0.0640,1.0020,0.00,0.00,-0.06,2.14,0.64,50.55
5.653186,0.0020,0.0630,1.0029,0.00,0.00,0.00,2.14,0.64,50.55
5.683154,0.0029,0.0635,1.0024,0.00,0.00,0.00,2.14,0.64,50.55
5.683154,0.0015,0.0620,1.0034,0.00,0.00,0.00,2.14,0.64,50.55
5.744097,0.0024,0.0630,1.0024,0.00,0.00,-0.06,2.14,0.64,50.55
5.744097,0.0024,0.0630,1.0020,0.06,0.00,0.00,2.14,0.64,50.55
5.773102,0.0029,0.0625,1.0024,0.00,0.00,0.00,2.14,0.64,50.55
5.773102,0.0029,0.0620,1.0020,0.00,0.00,0.00,2.14,0.64,50.55
5.803982,0.0029,0.0630,1.0024,0.00,0.00,-0.12,2.14,0.64,50.55
5.803982,0.0024,0.0625,1.0024,0.00,0.00,-0.06,2.14,0.64,50.55
5.863957,0.0020,0.0625,1.0024,0.00,0.00,0.00,2.14,0.64,50.55
5.863957,0.0024,0.0625,1.0034,0.00,0.00,0.00,2.14,0.64,50.55
5.893147,0.0020,0.0625,1.0015,0.00,0.00,0.00,2.14,0.64,50.55
5.893147,0.0024,0.0630,1.0029,0.06,0.00,0.00,2.14,0.64,50.55
5.924337,0.0015,0.0635,1.0024,0.00,0.00,0.00,2.14,0.64,50.55
5.924337,0.0024,0.0625,1.0024,0.00,0.00,0.00,2.14,0.64,50.55
5.984031,0.0020,0.0630,1.0020,0.06,0.00,0.00,2.14,0.64,50.55
5.984031,0.0024,0.0630,1.0020,0.06,0.00,-0.06,2.14,0.64,50.55
6.013210,0.0020,0.0625,1.0015,0.00,0.00,-0.12,2.14,0.64,50.55
6.013210,0.0024,0.0630,1.0029,0.00,0.00,-0.06,2.14,0.64,50.55
6.043877,0.0020,0.0635,1.0015,0.00,0.00,0.00,2.14,0.64,50.55
6.043877,0.0015,0.0630,1.0024,0.00,0.00,0.00,2.14,0.64,50.55
6.103981,0.0024,0.0620,1.0020,0.00,0.00,-0.06,2.14,0.64,50.55
6.103981,0.0024,0.0620,1.0029,0.00,0.00,-0.12,2.14,0.64,50.55
6.133164,0.0020,0.0625,1.0024,0.06,0.00,0.00,2.14,0.64,50.55
6.133164,0.0020,0.0625,1.0029,0.06,0.00,0.00,2.14,0.64,50.55
6.164010,0.0020,0.0625,1.0024,0.06,0.00,0.00,2.14,0.64,50.55
6.164010,0.0024,0.0625,1.0020,0.00,0.00,0.00,2.14,0.64,50.55
6.223559,0.0024,0.0635,1.0015,0.06,0.00,-0.06,2.14,0.64,50.55
6.223559,0.0020,0.0635,1.0010,0.00,0.00,0.00,2.14,0.64,50.55
6.253156,0.0015,0.0630,1.0020,0.00,0.00,0.00,2.14,0.64,50.55
6.253156,0.0020,0.0630,1.0034,0.00,-0.06,0.00,2.14,0.64,50.55
6.313932,0.0020,0.0625,1.0029,0.00,0.00,0.00,2.14,0.64,50.55
6.313932,0.0015,0.0625,1.0020,0.00,0.00,-0.06,2.14,0.64,50.55
6.343110,0.0015,0.0630,1.0024,0.06,0.00,-0.06,2.14,0.64,50.55
6.343110,0.0024,0.0625,1.0024,0.00,0.00,0.00,2.14,0.64,50.55
6.374354,0.0020,0.0630,1.0015,0.00,0.00,0.00,2.14,0.64,50.55
6.374354,0.0020,0.0625,1.0024,0.00,0.00,0.00,2.14,0.64,50.55
6.434004,0.0020,0.0630,1.0024,0.00,0.00,0.00,2.14,0.64,50.55
6.434004,0.0020,0.0615,1.0020,0.00,0.00,-0.06,2.14,0.64,50.56
6.463277,0.0020,0.0635,1.0024,0.00,0.00,0.00,2.14,0.64,50.56
6.463277,0.0020,0.0630,1.0024,0.00,0.00,-0.06,2.14,0.64,50.56
6.494001,0.0015,0.0625,1.0020,0.00,0.00,-0.06,2.14,0.64,50.56
6.494001,0.0020,0.0630,1.0020,0.00,0.00,-0.06,2.14,0.64,50.56
6.555182,0.0015,0.0630,1.0024,0.00,0.06,-0.06,2.14,0.64,50.56
6.555182,0.0020,0.0635,1.0020,0.00,0.00,-0.12,2.14,0.64,50.56
6.583343,0.0024,0.0625,1.0020,0.00,0.00,0.00,2.14,0.64,50.56
6.583343,0.0024,0.0625,1.0020,0.00,0.00,0.00,2.14,0.64,50.56
6.613878,0.0020,0.0625,1.0024,0.00,0.00,-0.06,2.14,0.64,50.56
6.613878,0.0024,0.0625,1.0020,0.00,0.00,0.00,2.14,0.64,50.56
6.674157,0.0020,0.0625,1.0020,0.00,0.00,0.00,2.14,0.64,50.56
6.674157,0.0020,0.0630,1.0010,0.00,0.00,-0.06,2.14,0.64,50.56
6.703266,0.0020,0.0630,1.0015,0.00,0.00,-0.06,2.14,0.64,50.56
6.703266,0.0020,0.0630,1.0024,0.06,0.00,-0.06,2.14,0.64,50.56
6.734062,0.0029,0.0635,1.0020,0.00,0.00,0.00,2.14,0.64,50.56
6.734062,0.0020,0.0635,1.0020,0.00,0.00,-0.06,2.14,0.64,50.56
6.794050,0.0020,0.0635,1.0024,0.00,0.00,0.00,2.14,0.64,50.56
6.794050,0.0024,0.0630,1.0010,0.00,0.00,0.00,2.14,0.64,50.56
6.824250,0.0024,0.0625,1.0020,0.00,0.00,-0.06,2.14,0.64,50.56
6.824250,0.0024,0.0635,1.0015,0.06,0.00,0.00,2.14,0.64,50.56
6.853097,0.0034,0.0645,1.0024,0.00,0.00,-0.06,2.14,0.64,50.56
6.853097,0.0020,0.0640,1.0024,0.00,0.00,0.00,2.14,0.64,50.56
6.913287,0.0020,0.0630,1.0020,0.00,0.00,0.00,2.14,0.64,50.56
6.913287,0.0024,0.0630,1.0029,0.00,0.00,0.00,2.14,0.64,50.56
6.943890,0.0029,0.0630,1.0020,0.00,0.00,0.00,2.14,0.64,50.56
6.943890,0.0029,0.0625,1.0015,0.00,0.00,0.00,2.14,0.64,50.56
6.973199,0.0015,0.0625,1.0015,0.00,0.00,-0.06,2.14,0.64,50.56
6.973199,0.0020,0.0635,1.0015,0.00,0.00,0.00,2.14,0.64,50.56
7.034002,0.0010,0.0630,1.0024,0.00,0.00,0.00,2.14,0.64,50.56
7.034002,0.0020,0.0630,1.0015,0.00,0.00,-0.06,2.14,0.64,50.56
7.063151,0.0020,0.0625,1.0010,0.00,0.00,-0.12,2.14,0.64,50.56
7.063151,0.0024,0.0630,1.0020,0.00,0.00,0.00,2.14,0.64,50.56
7.093941,0.0020,0.0630,1.0020,0.00,0.00,-0.06,2.14,0.64,50.56
7.093941,0.0020,0.0630,1.0010,0.00,0.06,0.00,2.14,0.64,50.56
7.154025,0.0024,0.0625,1.0015,0.06,0.00,0.00,2.14,0.64,50.56
7.154025,0.0029,0.0630,1.0010,0.00,0.00,-0.06,2.14,0.64,50.56
7.183159,0.0015,0.0630,1.0020,0.00,0.00,-0.06,2.14,0.64,50.56
7.183159,0.0020,0.0630,1.0020,0.00,0.00,0.00,2.14,0.64,50.56
7.213998,0.0015,0.0625,1.0015,0.00,0.00,-0.06,2.14,0.64,50.56
7.213998,0.0029,0.0620,1.0010,0.00,0.00,-0.06,2.14,0.64,50.56
7.273995,0.0024,0.0625,1.0010,0.00,0.00,-0.12,2.14,0.64,50.56
7.273995,0.0020,0.0630,1.0015,0.00,0.00,0.00,2.14,0.64,50.56
7.303185,0.0020,0.0625,1.0020,0.00,0.00,-0.06,2.14,0.64,50.56
7.303185,0.0024,0.0625,1.0010,0.00,0.00,-0.06,2.14,0.64,50.56
7.333865,0.0015,0.0625,1.0015,0.00,0.00,0.00,2.14,0.64,50.56
7.333865,0.0010,0.0625,1.0005,0.00,0.00,0.00,2.14,0.64,50.56
7.394029,0.0015,0.0620,1.0015,0.00,0.00,-0.06,2.14,0.64,50.56
7.394029,0.0024,0.0625,1.0020,0.06,0.00,-0.06,2.14,0.64,50.57
7.423868,0.0024,0.0630,1.0020,0.00,0.00,0.00,2.14,0.64,50.57
7.423868,0.0020,0.0635,1.0015,0.00,0.00,0.00,2.14,0.64,50.57
7.453930,0.0015,0.0620,1.0010,0.00,-0.06,0.00,2.14,0.64,50.57
7.453930,0.0015,0.0630,1.0024,0.00,0.00,0.00,2.14,0.64,50.57
7.514018,0.0015,0.0625,1.0024,0.06,0.00,0.00,2.14,0.64,50.57
7.514018,0.0020,0.0630,1.0015,0.00,0.00,0.00,2.14,0.64,50.57
7.544691,0.0015,0.0625,1.0010,0.06,0.00,-0.06,2.14,0.64,50.57
7.544691,0.0020,0.0630,1.0015,0.00,0.00,-0.12,2.14,0.64,50.57
7.573275,0.0024,0.0630,1.0024,0.00,0.00,0.00,2.14,0.64,50.57
7.573275,0.0020,0.0635,1.0020,0.00,0.00,-0.06,2.14,0.64,50.57
7.634076,0.0024,0.0630,1.0010,0.00,0.00,0.00,2.14,0.64,50.57
7.634076,0.0015,0.0630,1.0015,0.00,0.00,-0.06,2.14,0.64,50.57
7.664349,0.0020,0.0630,1.0010,0.06,0.00,-0.06,2.14,0.64,50.57
7.664349,0.0020,0.0630,1.0020,0.00,0.00,0.00,2.14,0.64,50.57
7.693236,0.0020,0.0625,1.0015,0.00,0.00,0.00,2.14,0.64,50.57
7.693236,0.0024,0.0625,1.0020,0.06,0.00,0.00,2.14,0.64,50.57
7.753982,0.0024,0.0625,1.0024,0.06,0.00,-0.06,2.14,0.64,50.57
7.753982,0.0029,0.0630,1.0020,0.00,0.00,-0.06,2.14,0.64,50.57
7.783163,0.0029,0.0625,1.0020,0.06,0.00,0.00,2.14,0.64,50.57
7.783163,0.0020,0.0625,1.0005,0.06,0.00,-0.06,2.14,0.64,50.57
7.843193,0.0020,0.0635,1.0024,0.00,0.00,0.00,2.14,0.64,50.57
7.843193,0.0029,0.0635,1.0015,0.00,0.00,0.00,2.14,0.64,50.57
7.873977,0.0015,0.0625,1.0015,0.00,0.00,0.00,2.14,0.64,50.57
7.873977,0.0015,0.0625,1.0024,0.00,0.00,0.00,2.14,0.64,50.57
7.903193,0.0015,0.0620,1.0015,0.00,0.00,0.00,2.14,0.64,50.57
7.903193,0.0020,0.0620,1.0024,0.00,0.00,0.00,2.14,0.64,50.57
7.963927,0.0015,0.0620,1.0010,0.00,0.00,0.00,2.14,0.64,50.57
7.963927,0.0020,0.0625,1.0015,0.06,0.00,0.00,2.14,0.64,50.57
7.993970,0.0015,0.0635,1.0020,0.00,0.00,-0.06,2.14,0.64,50.57
7.993970,0.0029,0.0625,1.0005,0.00,0.00,0.00,2.14,0.65,50.57
8.024166,0.0020,0.0630,1.0015,0.00,0.00,-0.12,2.14,0.64,50.58
8.024166,0.0015,0.0630,1.0015,0.00,0.00,0.00,2.14,0.64,50.58
8.085878,0.0020,0.0630,1.0024,0.00,0.00,0.00,2.14,0.65,50.58
8.085878,0.0024,0.0620,1.0015,0.00,0.00,-0.06,2.14,0.65,50.58
8.115825,0.0029,0.0625,1.0015,0.06,0.00,-0.12,2.14,0.65,50.58
8.115825,0.0015,0.0620,1.0015,0.00,0.00,0.00,2.14,0.64,50.58
8.143272,0.0015,0.0630,1.0020,0.00,0.00,0.00,2.14,0.64,50.58
8.143272,0.0015,0.0620,1.0024,0.00,0.00,0.00,2.14,0.65,50.58
8.203995,0.0015,0.0620,1.0010,0.00,0.00,0.00,2.14,0.65,50.58
8.203995,0.0020,0.0625,1.0024,0.00,0.00,0.00,2.14,0.65,50.58
8.233544,0.0020,0.0630,1.0015,0.00,0.00,0.00,2.14,0.65,50.58
8.233544,0.0020,0.0625,1.0020,0.00,0.00,0.00,2.14,0.65,50.58
8.263332,0.0020,0.0630,1.0024,0.00,0.00,-0.06,2.14,0.65,50.58
8.263332,0.0020,0.0625,1.0020,0.00,0.00,-0.06,2.14,0.65,50.58
8.324386,0.0015,0.0635,1.0015,0.00,0.00,0.00,2.14,0.65,50.58
8.324386,0.0020,0.0630,1.0020,0.00,0.00,0.00,2.14,0.65,50.58
8.353403,0.0020,0.0635,1.0020,0.00,0.00,-0.06,2.14,0.65,50.58
8.353403,0.0020,0.0630,1.0015,0.00,0.00,-0.06,2.14,0.65,50.58
8.384354,0.0029,0.0630,1.0020,0.06,0.00,-0.06,2.14,0.65,50.58
8.384354,0.0015,0.0625,1.0015,0.00,0.00,-0.06,2.14,0.65,50.58
8.443978,0.0020,0.0620,1.0005,0.06,0.00,0.00,2.14,0.65,50.58
8.443978,0.0020,0.0630,1.0020,0.00,0.00,-0.06,2.14,0.65,50.58
8.474897,0.0015,0.0630,1.0020,0.00,0.00,-0.06,2.14,0.65,50.58
8.474897,0.0015,0.0620,1.0024,0.00,0.00,-0.06,2.14,0.65,50.58
8.503260,0.0024,0.0620,1.0024,0.00,0.00,0.00,2.14,0.65,50.58
8.503260,0.0024,0.0620,1.0015,0.00,0.00,0.00,2.14,0.65,50.58
8.563941,0.0024,0.0620,1.0015,0.06,0.00,0.00,2.14,0.65,50.58
8.563941,0.0024,0.0620,1.0020,0.06,0.00,-0.06,2.14,0.65,50.58
8.593250,0.0024,0.0625,1.0010,0.06,0.00,-0.06,2.14,0.65,50.58
8.593250,0.0015,0.0620,1.0015,0.00,-0.06,0.00,2.14,0.65,50.58
8.624244,0.0020,0.0630,1.0015,0.00,0.00,-0.06,2.14,0.65,50.58
8.624244,0.0020,0.0630,1.0020,0.00,0.00,-0.06,2.14,0.65,50.58
8.683982,0.0020,0.0620,1.0020,0.06,0.00,-0.06,2.14,0.65,50.58
8.683982,0.0029,0.0625,1.0020,0.00,0.00,-0.06,2.14,0.65,50.58
8.713228,0.0020,0.0630,1.0024,0.00,0.00,-0.06,2.14,0.65,50.58
8.713228,0.0024,0.0625,1.0020,0.00,0.00,-0.06,2.14,0.65,50.58
8.743962,0.0015,0.0630,1.0020,0.00,0.00,-0.06,2.14,0.65,50.58
8.743962,0.0020,0.0615,1.0015,0.00,0.00,0.00,2.14,0.65,50.58
8.803994,0.0015,0.0615,1.0020,0.00,0.00,0.00,2.14,0.65,50.58
8.803994,0.0020,0.0625,1.0020,0.00,0.00,0.00,2.14,0.65,50.58
8.833140,0.0024,0.0620,1.0020,0.00,0.00,0.00,2.14,0.65,50.58
8.833140,0.0020,0.0615,1.0020,0.00,0.00,-0.06,2.14,0.65,50.58
8.863204,0.0020,0.0620,1.0020,0.00,0.00,-0.06,2.14,0.65,50.58
8.863204,0.0029,0.0620,1.0015,0.00,0.00,0.00,2.14,0.65,50.58
8.924567,0.0024,0.0625,1.0010,0.06,0.00,0.00,2.14,0.65,50.58
8.924567,0.0024,0.0625,1.0015,0.06,0.00,-0.06,2.14,0.65,50.58
8.953621,0.0020,0.0630,1.0020,0.00,0.00,0.00,2.14,0.65,50.58
8.953621,0.0020,0.0625,1.0024,0.00,0.00,-0.06,2.14,0.65,50.58
8.983213,0.0015,0.0635,1.0020,0.00,0.00,0.00,2.14,0.65,50.58
8.983213,0.0010,0.0635,1.0015,0.00,0.00,0.00,2.14,0.65,50.58
9.043985,0.0024,0.0630,1.0015,0.00,0.00,-0.06,2.14,0.65,50.58
9.043985,0.0015,0.0630,1.0010,0.00,0.00,0.00,2.14,0.65,50.58
9.073166,0.0024,0.0625,1.0015,0.06,0.00,0.00,2.14,0.65,50.58
9.073166,0.0029,0.0625,1.0020,0.06,0.00,-0.06,2.14,0.65,50.58
9.103993,0.0015,0.0630,1.0020,0.00,0.00,0.00,2.14,0.65,50.58
9.103993,0.0015,0.0625,1.0024,0.00,0.00,-0.06,2.14,0.65,50.58
9.163220,0.0015,0.0630,1.0020,0.00,0.00,0.00,2.14,0.65,50.58
9.163220,0.0024,0.0630,1.0024,0.00,0.00,-0.06,2.14,0.65,50.58
9.193893,0.0020,0.0630,1.0020,0.00,0.00,0.00,2.14,0.65,50.58
9.193893,0.0020,0.0620,1.0020,0.06,0.00,-0.06,2.14,0.65,50.58
9.255846,0.0024,0.0620,1.0020,0.00,0.00,0.00,2.14,0.65,50.58
9.255846,0.0015,0.0625,1.0024,0.00,0.00,0.00,2.14,0.65,50.58
9.284093,0.0029,0.0625,1.0020,0.00,0.00,-0.06,2.14,0.65,50.58
9.284093,0.0024,0.0620,1.0024,0.00,0.00,0.00,2.14,0.65,50.58
9.313114,0.0020,0.0625,1.0015,0.00,0.00,-0.06,2.14,0.65,50.58
9.313114,0.0020,0.0625,1.0020,0.00,0.00,-0.06,2.14,0.65,50.58
9.373073,0.0024,0.0625,1.0034,0.06,0.00,-0.06,2.14,0.65,50.58
9.373073,0.0020,0.0630,1.0034,0.00,0.00,0.00,2.14,0.65,50.58
9.403970,0.0024,0.0630,1.0015,0.00,0.00,-0.06,2.14,0.65,50.58
9.403970,0.0020,0.0625,1.0020,0.00,0.00,-0.12,2.14,0.65,50.58
9.433162,0.0029,0.0625,1.0020,0.00,0.00,-0.06,2.14,0.65,50.58
9.433162,0.0015,0.0625,1.0029,0.00,0.00,-0.06,2.14,0.65,50.58
9.493995,0.0020,0.0625,1.0024,0.00,0.00,0.00,2.14,0.65,50.58
9.493995,0.0020,0.0620,1.0020,0.00,0.00,0.00,2.14,0.65,50.58
9.523436,0.0024,0.0625,1.0024,0.06,0.00,-0.06,2.14,0.65,50.58
9.523436,0.0020,0.0630,1.0020,0.00,0.00,0.00,2.14,0.65,50.58
9.553310,0.0010,0.0630,1.0020,0.00,0.00,-0.12,2.14,0.65,50.58
9.553310,0.0015,0.0620,1.0010,0.00,0.00,0.00,2.14,0.65,50.58
9.613210,0.0015,0.0630,1.0020,0.00,0.00,-0.06,2.14,0.65,50.58
9.613210,0.0015,0.0625,1.0020,0.00,0.00,0.00,2.14,0.65,50.58
9.644012,0.0020,0.0630,1.0020,0.00,0.00,-0.06,2.14,0.65,50.58
9.644012,0.0024,0.0625,1.0015,0.00,0.00,-0.06,2.14,0.65,50.58
9.673178,0.0015,0.0625,1.0020,0.00,0.00,-0.06,2.14,0.65,50.58
9.673178,0.0020,0.0625,1.0020,0.00,0.00,-0.06,2.14,0.65,50.58
9.733987,0.0020,0.0625,1.0029,0.00,0.00,0.00,2.14,0.65,50.58
9.733987,0.0020,0.0630,1.0020,0.06,0.00,-0.06,2.14,0.65,50.58
9.763219,0.0020,0.0625,1.0020,0.00,0.00,0.00,2.14,0.65,50.58
9.763219,0.0015,0.0630,1.0010,0.00,0.00,-0.06,2.14,0.65,50.59
9.794099,0.0024,0.0615,1.0015,0.00,0.00,-0.06,2.14,0.65,50.59
9.794099,0.0015,0.0620,1.0015,0.06,0.00,-0.06,2.14,0.65,50.59
9.854002,0.0015,0.0630,1.0024,0.00,0.00,-0.06,2.14,0.65,50.59
9.854002,0.0024,0.0635,1.0020,0.00,0.00,0.00,2.14,0.65,50.59
9.884309,0.0020,0.0630,1.0024,0.00,-0.06,0.00,2.14,0.65,50.59
9.884309,0.0024,0.0620,1.0020,0.00,-0.06,-0.06,2.14,0.65,50.59
9.913883,0.0024,0.0635,1.0015,0.00,0.00,0.00,2.14,0.65,50.59
9.913883,0.0024,0.0640,1.0024,0.00,0.00,-0.06,2.14,0.65,50.59
9.973962,0.0020,0.0625,1.0024,0.00,0.00,0.00,2.14,0.65,50.59
9.973962,0.0024,0.0625,1.0024,0.00,0.00,0.00,2.14,0.65,50.59
10.003248,0.0020,0.0630,1.0015,0.00,0.00,0.00,2.14,0.65,50.59
10.003248,0.0020,0.0635,1.0020,0.00,0.00,0.00,2.14,0.65,50.59
10.033991,0.0020,0.0630,1.0015,0.00,0.00,-0.06,2.14,0.65,50.59
10.033991,0.0024,0.0635,1.0015,0.00,0.00,0.00,2.14,0.65,50.59
10.093910,0.0015,0.0625,1.0024,0.00,0.00,0.00,2.14,0.65,50.59
10.093910,0.0020,0.0620,1.0020,0.00,0.00,-0.06,2.14,0.65,50.59
10.124130,0.0020,0.0630,1.0015,0.06,0.00,-0.06,2.14,0.65,50.59
10.124130,0.0024,0.0630,1.0020,0.00,0.00,0.00,2.14,0.65,50.59
10.153117,0.0015,0.0635,1.0029,0.00,0.00,-0.06,2.14,0.65,50.59
10.153117,0.0024,0.0620,1.0015,0.06,0.00,-0.12,2.14,0.65,50.59
10.213699,0.0015,0.0625,1.0020,0.00,0.00,0.00,2.14,0.65,50.59
10.213699,0.0015,0.0630,1.0020,0.06,0.00,0.00,2.14,0.65,50.59
10.243547,0.0015,0.0630,1.0015,0.00,0.00,0.00,2.14,0.65,50.59
10.243547,0.0020,0.0630,1.0015,0.00,-0.06,0.00,2.14,0.65,50.59
10.273935,0.0024,0.0625,1.0020,0.00,0.00,-0.06,2.14,0.65,50.59
10.273935,0.0020,0.0620,1.0005,0.00,0.00,0.00,2.14,0.65,50.59
10.334029,0.0024,0.0620,1.0024,0.00,0.00,-0.06,2.14,0.65,50.59
10.334029,0.0020,0.0630,1.0020,0.06,0.00,0.00,2.14,0.65,50.59
10.363129,0.0024,0.0625,1.0020,0.06,0.00,-0.06,2.14,0.65,50.59
10.363129,0.0020,0.0625,1.0020,0.00,0.00,0.00,2.14,0.65,50.59
10.393118,0.0015,0.0615,1.0020,0.00,0.00,-0.06,2.14,0.65,50.59
10.393118,0.0020,0.0635,1.0015,0.00,0.00,0.00,2.14,0.65,50.59
10.455917,0.0015,0.0630,1.0020,0.06,0.00,-0.06,2.14,0.65,50.59
10.455917,0.0015,0.0625,1.0015,0.00,0.00,0.00,2.14,0.65,50.59
10.485794,0.0020,0.0620,1.0015,0.00,0.00,-0.06,2.14,0.65,50.59
10.485794,0.0015,0.0625,1.0020,0.00,0.00,0.00,2.14,0.65,50.59
10.515998,0.0020,0.0630,1.0010,0.06,0.00,-0.06,2.14,0.65,50.59
10.515998,0.0029,0.0625,1.0015,0.06,0.00,0.00,2.14,0.65,50.59
10.573991,0.0024,0.0630,1.0020,0.00,0.00,-0.06,2.14,0.65,50.59
10.573991,0.0020,0.0625,1.0015,0.00,0.00,-0.06,2.14,0.65,50.59
10.604297,0.0020,0.0635,1.0010,0.06,0.00,-0.06,2.14,0.65,50.59
10.604297,0.0015,0.0640,1.0015,0.00,0.00,0.00,2.14,0.65,50.59
10.663814,0.0020,0.0635,1.0015,0.00,0.00,-0.06,2.14,0.65,50.59
10.663814,0.0015,0.0630,1.0024,0.00,0.00,-0.06,2.14,0.65,50.59
10.692998,0.0020,0.0630,1.0010,0.00,0.00,0.00,2.14,0.65,50.59
10.692998,0.0015,0.0635,1.0015,0.00,0.00,0.00,2.14,0.65,50.59
10.723508,0.0020,0.0625,1.0020,0.00,0.00,-0.06,2.14,0.65,50.59
10.723508,0.0015,0.0630,1.0015,0.00,0.00,-0.06,2.14,0.65,50.59
10.783174,0.0015,0.0630,1.0020,0.06,0.00,-0.06,2.14,0.65,50.59
10.783174,0.0020,0.0630,1.0020,0.00,0.00,0.00,2.14,0.65,50.59
10.814003,0.0020,0.0625,1.0020,0.00,0.00,-0.06,2.14,0.65,50.59
10.814003,0.0015,0.0630,1.0020,0.00,0.00,-0.06,2.14,0.65,50.59
10.843193,0.0020,0.0630,1.0010,0.06,0.00,0.00,2.14,0.65,50.59
10.843193,0.0024,0.0620,1.0010,0.00,0.00,-0.06,2.14,0.65,50.59
10.903141,0.0015,0.0635,1.0020,0.06,0.00,0.00,2.14,0.65,50.59
10.903141,0.0024,0.0630,1.0010,0.06,0.00,-0.06,2.14,0.65,50.59
10.933906,0.0024,0.0635,1.0015,0.06,0.00,0.00,2.14,0.65,50.59
10.933906,0.0020,0.0635,1.0010,0.00,0.00,-0.06,2.14,0.65,50.59
10.963076,0.0029,0.0635,1.0020,0.00,0.00,-0.06,2.14,0.65,50.59
10.963076,0.0015,0.0630,1.0020,0.00,0.00,0.00,2.14,0.65,50.59
11.024183,0.0020,0.0635,1.0020,0.00,0.00,0.00,2.14,0.65,50.59
11.024183,0.0020,0.0620,1.0015,0.00,-0.06,0.00,2.14,0.65,50.59
11.053217,0.0015,0.0630,1.0020,0.00,0.00,-0.06,2.14,0.65,50.59
11.053217,0.0024,0.0625,1.0024,0.00,0.00,-0.06,2.14,0.65,50.59
11.083958,0.0020,0.0625,1.0015,0.00,0.00,0.00,2.14,0.65,50.59
11.083958,0.0010,0.0630,1.0029,0.00,0.00,0.00,2.14,0.65,50.59
11.143899,0.0010,0.0630,1.0010,0.00,0.00,-0.06,2.14,0.65,50.59
11.143899,0.0020,0.0625,1.0015,0.00,0.00,-0.12,2.14,0.65,50.59
11.173119,0.0015,0.0620,1.0020,0.00,0.00,0.00,2.14,0.65,50.59
11.173119,0.0020,0.0635,1.0020,0.00,0.00,-0.06,2.14,0.65,50.59
11.203862,0.0024,0.0620,1.0024,0.00,0.00,-0.06,2.14,0.65,50.59
11.203862,0.0020,0.0625,1.0020,0.00,0.00,0.00,2.14,0.65,50.59
11.263962,0.0020,0.0630,1.0020,0.12,0.00,0.00,2.14,0.65,50.59
11.263962,0.0020,0.0625,1.0020,0.00,0.00,0.00,2.14,0.65,50.59
11.293111,0.0020,0.0625,1.0029,0.00,0.00,0.00,2.14,0.65,50.59
11.293111,0.0024,0.0625,1.0029,0.00,0.00,-0.06,2.14,0.65,50.59
11.323611,0.0020,0.0630,1.0029,0.06,0.00,-0.06,2.14,0.65,50.59
11.323611,0.0029,0.0625,1.0029,0.00,0.00,0.00,2.14,0.65,50.59
11.383936,0.0020,0.0630,1.0024,0.00,0.00,-0.06,2.14,0.65,50.59
11.383936,0.0024,0.0635,1.0029,0.00,0.00,0.00,2.14,0.65,50.59
11.413173,0.0005,0.0625,1.0024,0.00,0.00,-0.06,2.14,0.65,50.59
11.413173,0.0020,0.0635,1.0020,0.00,0.00,-0.06,2.14,0.65,50.59
11.443869,0.0024,0.0620,1.0010,0.06,0.00,0.00,2.14,0.65,50.59
11.443869,0.0015,0.0620,1.0020,0.00,0.00,0.00,2.14,0.65,50.59
11.504566,0.0015,0.0620,1.0010,0.00,0.00,0.00,2.14,0.65,50.59
11.504566,0.0020,0.0625,1.0010,0.00,0.00,-0.06,2.14,0.65,50.59
11.533464,0.0020,0.0630,1.0024,0.00,0.00,-0.06,2.14,0.65,50.59
11.533464,0.0015,0.0620,1.0020,0.00,0.00,-0.06,2.14,0.65,50.59
11.563998,0.0015,0.0625,1.0020,0.00,0.00,0.00,2.14,0.65,50.59
11.563998,0.0024,0.0630,1.0020,0.00,0.00,0.00,2.14,0.65,50.59
11.623460,0.0020,0.0625,1.0020,0.00,0.00,0.00,2.14,0.65,50.59
11.623460,0.0029,0.0630,1.0024,0.06,0.00,-0.06,2.14,0.65,50.59
11.654106,0.0020,0.0625,1.0020,0.00,0.00,-0.06,2.14,0.65,50.59
11.654106,0.0020,0.0625,1.0020,0.00,0.00,-0.06,2.14,0.65,50.59
11.683190,0.0024,0.0625,1.0024,0.06,0.00,-0.06,2.14,0.65,50.59
11.683190,0.0024,0.0625,1.0020,0.06,0.00,-0.12,2.14,0.65,50.59
11.744144,0.0015,0.0635,1.0020,0.00,0.00,-0.06,2.14,0.65,50.59
11.744144,0.0024,0.0625,1.0024,0.00,0.00,-0.06,2.14,0.65,50.59
11.773195,0.0015,0.0620,1.0015,0.00,0.00,-0.06,2.14,0.65,50.59
11.773195,0.0020,0.0625,1.0015,0.00,0.00,-0.06,2.14,0.65,50.59
11.804325,0.0005,0.0625,1.0020,0.06,0.00,0.00,2.14,0.65,50.59
11.804325,0.0010,0.0630,1.0024,0.00,0.00,-0.06,2.14,0.65,50.59
11.863978,0.0020,0.0625,1.0024,0.00,0.00,-0.06,2.14,0.65,50.59
11.863978,0.0020,0.0625,1.0024,0.06,0.00,-0.06,2.14,0.65,50.59
11.893101,0.0024,0.0635,1.0024,0.00,0.00,0.00,2.14,0.65,50.59
11.893101,0.0024,0.0625,1.0015,0.06,0.00,-0.06,2.14,0.65,50.59
11.924299,0.0020,0.0620,1.0015,0.00,0.00,0.00,2.14,0.65,50.59
11.924299,0.0029,0.0635,1.0015,0.06,0.00,0.00,2.14,0.65,50.59
11.984152,0.0024,0.0625,1.0020,0.00,0.00,-0.06,2.14,0.65,50.59
11.984152,0.0024,0.0630,1.0010,0.06,0.00,-0.06,2.14,0.65,50.59
12.043935,0.0020,0.0630,1.0015,0.06,0.00,-0.06,2.14,0.65,50.60
12.043935,0.0020,0.0630,1.0020,0.12,0.00,-0.06,2.14,0.65,50.60
12.073139,0.0020,0.0630,1.0020,0.00,0.00,0.00,2.14,0.65,50.60
12.073139,0.0020,0.0630,1.0020,0.00,0.00,-0.12,2.14,0.65,50.60
12.103846,0.0024,0.0635,1.0024,0.00,0.00,0.00,2.14,0.65,50.60
12.103846,0.0015,0.0630,1.0020,0.00,0.00,-0.06,2.14,0.65,50.60
12.133053,0.0029,0.0630,1.0015,0.00,0.00,0.00,2.14,0.65,50.60
12.133053,0.0024,0.0630,1.0020,0.00,0.00,-0.06,2.14,0.65,50.60
12.194015,0.0015,0.0625,1.0015,0.00,0.00,0.00,2.14,0.65,50.60
12.194015,0.0024,0.0635,1.0015,0.00,0.00,-0.06,2.14,0.65,50.60
12.224160,0.0015,0.0630,1.0020,0.00,0.00,-0.06,2.14,0.65,50.60
12.224160,0.0020,0.0625,1.0020,0.00,0.06,-0.06,2.14,0.65,50.60
12.253047,0.0024,0.0625,1.0020,0.00,0.00,-0.06,2.14,0.65,50.60
12.253047,0.0024,0.0625,1.0015,0.00,0.00,0.00,2.14,0.65,50.60
12.313967,0.0015,0.0635,1.0024,0.00,0.00,-0.06,2.14,0.65,50.60
12.313967,0.0024,0.0635,1.0015,0.00,0.00,0.00,2.14,0.65,50.60
12.343129,0.0020,0.0625,1.0010,0.06,0.00,0.00,2.14,0.65,50.60
12.343129,0.0020,0.0630,1.0010,0.00,0.00,-0.06,2.14,0.65,50.60
12.373903,0.0015,0.0635,1.0020,0.00,0.00,-0.06,2.14,0.65,50.60
12.373903,0.0015,0.0630,1.0005,0.06,0.00,-0.06,2.14,0.65,50.60
12.433883,0.0015,0.0640,1.0010,0.00,0.00,-0.06,2.14,0.65,50.60
12.433883,0.0024,0.0630,1.0020,0.06,0.00,0.00,2.14,0.65,50.60
12.463162,0.0024,0.0630,1.0015,0.00,0.00,-0.06,2.14,0.65,50.60
12.463162,0.0020,0.0625,1.0020,0.06,0.00,0.00,2.14,0.65,50.60
12.495995,0.0015,0.0620,1.0015,0.00,0.00,0.00,2.14,0.65,50.60
12.495995,0.0015,0.0640,1.0015,0.00,0.00,0.00,2.14,0.65,50.60
12.555852,0.0024,0.0630,1.0029,0.00,0.00,-0.06,2.14,0.65,50.60
12.555852,0.0020,0.0630,1.0015,0.00,0.00,-0.06,2.14,0.65,50.60
12.584774,0.0010,0.0625,1.0015,0.06,0.00,0.00,2.14,0.65,50.60
12.584774,0.0020,0.0635,1.0034,0.00,0.00,0.00,2.14,0.65,50.60
12.618865,0.0015,0.0625,1.0029,0.00,0.00,0.00,2.14,0.65,50.60
12.618865,0.0020,0.0630,1.0020,0.06,0.00,0.00,2.14,0.65,50.60
12.673870,0.0029,0.0630,1.0015,0.06,0.00,-0.06,2.14,0.65,50.60
12.673870,0.0020,0.0620,1.0020,0.00,0.00,0.00,2.14,0.65,50.60
12.703113,0.0020,0.0630,1.0020,0.00,0.00,0.00,2.14,0.65,50.60
12.703113,0.0024,0.0635,1.0015,0.00,0.00,0.00,2.14,0.65,50.60
12.733909,0.0029,0.0630,1.0029,0.00,0.00,0.00,2.14,0.65,50.60
12.733909,0.0015,0.0630,1.0024,0.00,0.00,-0.06,2.14,0.65,50.60
12.793315,0.0015,0.0625,1.0024,0.00,0.00,-0.06,2.14,0.65,50.60
12.793315,0.0015,0.0635,1.0010,0.00,0.00,-0.06,2.14,0.65,50.60
12.823123,0.0024,0.0635,1.0015,0.00,0.00,-0.06,2.14,0.65,50.60
12.823123,0.0015,0.0630,1.0020,0.00,0.00,-0.06,2.14,0.65,50.60
12.883956,0.0020,0.0625,1.0015,0.00,0.00,0.00,2.14,0.65,50.60
12.883956,0.0024,0.0625,1.0029,0.06,0.00,0.00,2.14,0.65,50.60
12.913091,0.0020,0.0625,1.0024,0.06,0.00,-0.06,2.14,0.65,50.60
12.913091,0.0024,0.0620,1.0020,0.00,0.00,-0.06,2.14,0.65,50.60
12.944111,0.0020,0.0620,1.0020,0.00,0.00,0.00,2.14,0.65,50.60
12.944111,0.0015,0.0625,1.0024,0.00,0.00,-0.06,2.14,0.65,50.60
12.973086,0.0015,0.0620,1.0015,0.00,0.00,0.00,2.14,0.65,50.60
12.973086,0.0020,0.0620,1.0020,0.00,0.00,-0.06,2.14,0.65,50.60
13.033916,0.0010,0.0635,1.0024,0.00,0.00,-0.06,2.14,0.65,50.60
13.033916,0.0020,0.0625,1.0010,0.00,0.00,0.00,2.14,0.65,50.60
13.063154,0.0020,0.0625,1.0024,0.00,0.00,0.00,2.14,0.65,50.60
13.063154,0.0024,0.0625,1.0015,0.00,0.00,-0.12,2.14,0.65,50.60
13.093837,0.0029,0.0625,1.0024,0.00,0.00,-0.06,2.14,0.65,50.60
13.093837,0.0020,0.0630,1.0015,0.00,0.00,-0.06,2.14,0.65,50.60
13.153902,0.0024,0.0630,1.0015,0.00,0.00,-0.06,2.14,0.65,50.60
13.153902,0.0024,0.0635,1.0020,0.00,0.00,-0.06,2.14,0.65,50.60
13.183128,0.0020,0.0630,1.0015,0.06,0.00,0.00,2.14,0.65,50.60
13.183128,0.0020,0.0625,1.0020,0.00,0.00,-0.06,2.14,0.65,50.60
13.213152,0.0015,0.0625,1.0020,0.00,0.00,0.00,2.14,0.65,50.60
13.213152,0.0020,0.0625,1.0020,0.06,0.00,0.00,2.14,0.65,50.60
13.274303,0.0024,0.0620,1.0029,0.00,0.00,0.00,2.14,0.65,50.60
13.274303,0.0015,0.0625,1.0020,0.00,0.00,0.00,2.14,0.65,50.60
13.304303,0.0024,0.0620,1.0024,0.00,-0.06,0.00,2.14,0.65,50.60
13.304303,0.0015,0.0625,1.0024,0.00,0.00,-0.06,2.14,0.65,50.60
13.333098,0.0024,0.0635,1.0020,0.00,0.00,-0.06,2.14,0.65,50.60
13.333098,0.0020,0.0630,1.0024,0.00,0.00,0.00,2.14,0.65,50.60
13.394035,0.0024,0.0630,1.0024,0.00,0.00,0.00,2.14,0.65,50.60
13.394035,0.0029,0.0630,1.0020,0.00,0.00,0.00,2.14,0.65,50.60
13.423191,0.0020,0.0635,1.0015,0.00,0.00,0.00,2.14,0.65,50.60
13.423191,0.0020,0.0630,1.0010,0.00,0.00,0.00,2.14,0.65,50.60
13.484015,0.0034,0.0620,1.0010,0.00,0.00,-0.06,2.14,0.65,50.60
13.484015,0.0024,0.0630,1.0015,0.00,0.00,0.00,2.14,0.65,50.60
13.513207,0.0020,0.0625,1.0024,0.06,-0.06,-0.06,2.14,0.65,50.60
13.513207,0.0015,0.0630,1.0005,0.00,0.00,0.00,2.14,0.65,50.60
13.544463,0.0015,0.0630,1.0020,0.00,0.00,-0.06,2.14,0.65,50.60
13.544463,0.0015,0.0625,1.0024,0.00,0.00,0.00,2.14,0.65,50.60
13.603121,0.0020,0.0610,1.0034,0.00,0.00,0.00,2.14,0.65,50.60
13.603121,0.0015,0.0625,1.0015,0.00,0.00,0.00,2.14,0.65,50.60
13.633986,0.0015,0.0620,1.0010,0.12,0.00,-0.06,2.14,0.65,50.60
13.633986,0.0024,0.0630,1.0010,0.12,0.00,0.00,2.14,0.65,50.60
13.663148,0.0015,0.0625,1.0020,0.06,0.00,-0.06,2.14,0.65,50.60
13.663148,0.0015,0.0630,1.0024,0.00,0.00,0.00,2.14,0.65,50.60
13.724554,0.0005,0.0625,1.0029,0.00,0.00,0.00,2.14,0.65,50.60
13.724554,0.0024,0.0630,1.0015,0.00,0.00,-0.06,2.14,0.65,50.60
13.753185,0.0015,0.0630,1.0020,0.06,-0.06,-0.06,2.14,0.65,50.60
13.753185,0.0015,0.0635,1.0024,0.00,0.00,-0.06,2.14,0.65,50.60
13.784029,0.0010,0.0630,1.0020,0.00,0.00,0.00,2.14,0.65,50.60
13.784029,0.0015,0.0630,1.0020,0.06,0.00,0.00,2.14,0.65,50.60
13.844166,0.0020,0.0630,1.0020,0.00,0.00,0.00,2.14,0.65,50.60
13.844166,0.0024,0.0630,1.0024,0.00,0.00,0.00,2.14,0.65,50.60
13.873077,0.0020,0.0635,1.0024,0.00,0.00,-0.06,2.14,0.65,50.60
13.873077,0.0020,0.0620,1.0020,0.00,0.00,0.00,2.14,0.65,50.60
13.903832,0.0024,0.0630,1.0020,0.06,0.00,-0.06,2.14,0.65,50.60
13.903832,0.0020,0.0625,1.0029,0.00,0.00,-0.06,2.14,0.65,50.60
13.963989,0.0020,0.0630,1.0010,0.06,0.00,-0.06,2.14,0.65,50.60
13.963989,0.0020,0.0625,1.0020,0.06,0.00,0.00,2.14,0.65,50.60
13.993118,0.0015,0.0635,1.0015,0.00,0.00,0.00,2.14,0.65,50.60
13.993118,0.0024,0.0635,1.0015,0.00,0.00,0.00,2.14,0.65,50.60
14.023861,0.0020,0.0625,1.0010,0.00,0.00,0.00,2.14,0.65,50.60
14.023861,0.0015,0.0610,1.0005,0.06,0.00,-0.06,2.14,0.65,50.60
14.083504,0.0000,0.0615,0.9985,0.43,0.24,-0.12,2.14,0.65,50.60
14.083504,0.0039,0.0674,1.0024,0.12,0.06,0.00,2.14,0.65,50.60
14.113856,0.0015,0.0625,1.0034,0.18,-0.06,0.00,2.14,0.65,50.60
14.113856,0.0015,0.0640,1.0024,-0.31,0.00,0.00,2.14,0.65,50.60
14.143356,0.0020,0.0625,1.0024,-0.06,0.00,-0.06,2.14,0.65,50.60
14.143356,0.0015,0.0640,1.0015,0.06,0.00,0.00,2.14,0.65,50.60
14.203980,0.0015,0.0630,1.0029,-0.12,0.00,0.00,2.14,0.65,50.60
14.203980,0.0020,0.0620,1.0020,-0.18,0.00,-0.06,2.14,0.65,50.60
14.233105,0.0034,0.0620,1.0024,0.24,0.00,-0.06,2.14,0.65,50.60
14.233105,0.0020,0.0605,1.0000,0.00,0.00,-0.06,2.14,0.65,50.60
14.264031,0.0005,0.0635,1.0024,0.12,0.00,-0.06,2.14,0.65,50.60
14.264031,0.0024,0.0630,1.0010,0.00,0.00,-0.06,2.14,0.65,50.60
14.323999,0.0020,0.0630,1.0029,0.00,0.00,0.00,2.14,0.65,50.60
14.323999,0.0020,0.0635,1.0039,0.12,0.00,0.00,2.14,0.65,50.60
14.353202,0.0015,0.0640,1.0015,0.18,0.00,0.00,2.14,0.65,50.60
14.353202,0.0034,0.0615,1.0034,0.49,0.06,-0.06,2.14,0.65,50.60
14.383992,0.0034,0.0669,0.9995,-0.55,-0.06,0.00,2.14,0.65,50.60
14.383992,0.0005,0.0620,1.0005,0.00,-0.06,-0.06,2.14,0.65,50.60
14.446185,0.0029,0.0605,1.0029,-0.18,0.00,0.00,2.14,0.65,50.60
14.446185,0.0015,0.0605,1.0024,0.49,0.12,-0.06,2.14,0.65,50.60
14.476270,0.0024,0.0679,1.0044,0.00,-0.12,0.00,2.14,0.65,50.60
14.476270,0.0010,0.0615,1.0029,-0.18,0.00,0.00,2.14,0.65,50.60
14.504392,0.0020,0.0615,1.0024,-0.12,0.00,0.00,2.14,0.65,50.60
14.504392,-0.0117,0.1201,1.0024,4.09,3.60,-0.31,2.15,0.68,50.60
14.563995,0.0576,0.0439,0.8989,1.10,0.73,-0.18,2.14,0.62,50.61
14.563995,-0.0132,0.0811,0.9712,-2.56,-1.65,0.31,2.15,0.64,50.61
14.593297,-0.0146,0.1001,1.1074,3.17,-0.55,0.67,2.16,0.66,50.61
14.593297,0.0234,0.0425,1.0098,2.26,1.46,-0.92,2.14,0.63,50.61
14.624499,0.0093,0.0601,1.0342,-1.46,-1.22,-0.37,2.15,0.63,50.61
14.624499,-0.0049,0.0674,1.0146,0.85,0.37,0.06,2.15,0.64,50.61
14.683264,0.0024,0.0581,1.0020,0.37,0.55,-0.06,2.14,0.63,50.61
14.683264,0.0059,0.0649,1.0005,0.24,0.00,-0.24,2.15,0.63,50.61
14.713098,0.0039,0.0635,1.0005,-0.06,-0.18,-0.18,2.15,0.63,50.61
14.713098,0.0000,0.0630,1.0020,-0.55,0.00,-0.06,2.14,0.63,50.61
14.743320,0.0005,0.0645,1.0020,0.12,0.00,0.00,2.15,0.63,50.61
14.743320,0.0015,0.0630,1.0020,0.31,0.00,0.00,2.15,0.63,50.61
14.803227,0.0029,0.0630,1.0029,-0.18,0.00,-0.06,2.15,0.63,50.61
14.803227,0.0024,0.0630,1.0039,0.00,0.00,-0.06,2.15,0.63,50.61
14.833014,0.0029,0.0635,1.0029,0.31,0.00,0.00,2.14,0.64,50.61
14.833014,0.0020,0.0630,1.0024,0.06,0.00,-0.06,2.14,0.64,50.61
14.894062,0.0015,0.0625,1.0020,-0.12,0.00,-0.06,2.14,0.64,50.61
14.894062,0.0020,0.0620,1.0020,-0.06,0.00,0.00,2.14,0.64,50.61
14.923245,0.0024,0.0625,1.0020,0.18,0.00,-0.06,2.14,0.64,50.61
14.923245,0.0029,0.0640,1.0020,0.00,0.00,-0.06,2.14,0.64,50.61
14.954129,0.0029,0.0625,1.0010,-0.06,0.00,0.00,2.14,0.64,50.61
14.954129,0.0015,0.0625,1.0015,0.00,0.00,-0.06,2.14,0.64,50.61
15.013285,0.0029,0.0630,1.0020,0.00,0.00,0.00,2.14,0.64,50.61
15.013285,0.0015,0.0625,1.0024,-0.06,0.00,-0.06,2.15,0.64,50.61
15.043312,0.0029,0.0620,1.0039,-0.06,0.00,0.00,2.15,0.64,50.61
15.043312,0.0020,0.0620,1.0034,0.12,0.00,-0.06,2.15,0.64,50.61
15.073044,0.0020,0.0635,1.0034,0.12,0.00,-0.06,2.15,0.64,50.61
15.073044,0.0020,0.0630,1.0029,0.06,0.00,0.00,2.15,0.64,50.61
15.134041,0.0020,0.0620,1.0034,0.00,0.00,-0.06,2.15,0.64,50.61
15.134041,0.0015,0.0625,1.0015,0.12,0.00,-0.06,2.15,0.64,50.61
15.163279,0.0010,0.0625,1.0015,0.06,0.06,-0.06,2.15,0.64,50.61
15.163279,0.0015,0.0635,1.0015,0.00,0.00,-0.06,2.15,0.64,50.61
15.193285,0.0020,0.0625,1.0020,0.00,0.00,0.00,2.15,0.64,50.61
15.193285,0.0015,0.0635,1.0024,0.12,0.00,0.00,2.15,0.64,50.61
15.253278,0.0010,0.0640,1.0015,0.06,0.00,-0.06,2.15,0.64,50.61
15.253278,0.0024,0.0630,1.0020,0.00,0.00,-0.06,2.15,0.64,50.61
15.283244,0.0024,0.0630,1.0020,0.00,0.00,0.00,2.15,0.64,50.61
15.283244,0.0024,0.0635,1.0024,0.00,0.00,-0.06,2.15,0.64,50.61
15.313286,0.0024,0.0630,1.0020,0.00,0.00,-0.06,2.15,0.64,50.61
15.313286,0.0020,0.0625,1.0015,0.00,0.00,-0.06,2.15,0.64,50.61
15.373284,0.0015,0.0625,1.0020,0.06,0.00,-0.06,2.15,0.64,50.61
15.373284,0.0020,0.0630,1.0010,0.06,0.00,-0.06,2.15,0.64,50.61
15.403528,0.0020,0.0625,1.0029,0.00,0.00,0.00,2.15,0.64,50.61
15.403528,0.0020,0.0625,1.0024,0.00,0.00,-0.06,2.15,0.64,50.61
15.433303,0.0020,0.0630,1.0024,0.06,0.00,0.00,2.15,0.64,50.61
15.433303,0.0020,0.0630,1.0024,0.06,0.00,-0.12,2.15,0.64,50.61
15.493360,0.0024,0.0620,1.0024,0.00,0.00,-0.12,2.15,0.64,50.61
15.493360,0.0024,0.0625,1.0020,0.06,0.00,-0.06,2.15,0.64,50.61
15.523274,0.0015,0.0630,1.0020,0.12,0.00,0.00,2.15,0.64,50.61
15.523274,0.0020,0.0635,1.0015,0.06,0.00,0.00,2.15,0.64,50.61
15.553225,0.0020,0.0625,1.0020,0.00,0.00,-0.06,2.15,0.64,50.61
15.553225,0.0020,0.0635,1.0015,0.00,0.00,0.00,2.15,0.64,50.61
15.613268,0.0020,0.0635,1.0024,0.00,0.00,0.00,2.15,0.64,50.61
15.613268,0.0024,0.0630,1.0029,0.06,0.00,0.00,2.15,0.64,50.61
15.644628,0.0024,0.0630,1.0024,0.00,0.00,-0.06,2.15,0.64,50.61
15.644628,0.0020,0.0635,1.0029,0.00,0.00,-0.06,2.15,0.64,50.61
15.674069,0.0020,0.0635,1.0034,0.00,0.00,0.00,2.15,0.64,50.61
15.674069,0.0020,0.0635,1.0029,0.00,0.00,0.00,2.15,0.64,50.62
15.733236,0.0024,0.0630,1.0015,0.00,0.00,-0.06,2.15,0.64,50.62
15.733236,0.0015,0.0620,1.0024,0.00,0.00,-0.06,2.15,0.64,50.62
15.763234,0.0020,0.0625,1.0024,0.06,0.00,-0.06,2.14,0.64,50.62
15.763234,0.0020,0.0625,1.0029,0.00,0.00,0.00,2.14,0.64,50.62
15.794027,0.0024,0.0620,1.0015,0.06,0.00,-0.06,2.14,0.64,50.62
15.794027,0.0020,0.0630,1.0029,0.00,0.00,0.00,2.14,0.64,50.63
15.853285,0.0015,0.0640,1.0024,0.00,0.00,0.00,2.14,0.64,50.63
15.853285,0.0020,0.0635,1.0015,0.00,0.00,-0.06,2.14,0.64,50.63
15.883296,0.0010,0.0635,1.0020,0.00,0.00,0.00,2.14,0.64,50.64
15.883296,0.0020,0.0630,1.0020,0.00,-0.06,-0.06,2.14,0.64,50.64
15.913540,0.0015,0.0630,1.0020,0.06,0.00,0.00,2.14,0.64,50.64
15.913540,0.0015,0.0620,1.0024,0.06,0.00,-0.06,2.14,0.64,50.64
15.973291,0.0024,0.0625,1.0020,0.06,0.00,-0.06,2.14,0.64,50.64
15.973291,0.0015,0.0630,1.0034,0.00,0.00,0.00,2.14,0.64,50.64
16.003256,0.0020,0.0625,1.0029,0.00,0.00,0.00,2.14,0.64,50.64
16.003256,0.0020,0.0625,1.0024,0.00,0.00,0.00,2.14,0.64,50.65
16.033267,0.0020,0.0615,1.0020,0.00,0.00,0.00,2.14,0.64,50.65
16.033267,0.0020,0.0635,1.0020,0.00,0.00,-0.06,2.14,0.64,50.65
16.093240,0.0024,0.0630,1.0020,0.00,0.00,-0.06,2.14,0.64,50.65
16.093240,0.0020,0.0635,1.0024,0.00,0.00,0.00,2.14,0.64,50.65
16.123948,0.0020,0.0630,1.0024,0.00,0.00,-0.06,2.14,0.64,50.65
16.123948,0.0020,0.0635,1.0015,0.06,0.00,0.00,2.14,0.64,50.66
16.183275,0.0020,0.0635,1.0020,0.00,0.00,0.00,2.14,0.64,50.66
16.183275,0.0020,0.0635,1.0024,0.00,0.00,0.00,2.14,0.64,50.66
16.213268,0.0020,0.0630,1.0020,0.00,0.00,-0.06,2.14,0.64,50.66
16.213268,0.0020,0.0635,1.0010,0.00,0.00,-0.06,2.14,0.64,50.66
16.244817,0.0024,0.0645,1.0020,0.00,0.00,0.00,2.14,0.64,50.66
16.244817,0.0010,0.0630,1.0024,0.00,0.00,0.00,2.14,0.64,50.66
16.304034,0.0020,0.0630,1.0029,0.00,0.00,-0.06,2.14,0.64,50.67
16.304034,0.0024,0.0630,1.0020,0.00,0.00,-0.06,2.14,0.64,50.67
16.333211,0.0020,0.0635,1.0015,0.00,0.00,-0.06,2.14,0.64,50.67
16.333211,0.0020,0.0630,1.0020,0.00,0.00,-0.06,2.14,0.64,50.67
16.364008,0.0010,0.0630,1.0029,0.00,0.00,-0.06,2.14,0.64,50.67
16.364008,0.0020,0.0635,1.0024,0.00,0.00,0.00,2.14,0.64,50.67
16.423995,0.0010,0.0630,1.0024,0.00,0.00,0.00,2.14,0.64,50.68
16.423995,0.0024,0.0635,1.0024,0.00,0.00,0.00,2.14,0.64,50.68
16.453170,0.0024,0.0625,1.0010,0.06,0.00,-0.06,2.14,0.64,50.68
16.453170,0.0024,0.0635,1.0020,0.00,0.00,0.00,2.14,0.64,50.68
16.484006,0.0020,0.0630,1.0024,0.06,0.00,0.00,2.14,0.64,50.69
16.484006,0.0020,0.0630,1.0020,0.06,0.00,-0.06,2.14,0.64,50.69
16.543607,0.0024,0.0635,1.0020,0.00,-0.06,-0.06,2.14,0.64,50.69
16.543607,0.0020,0.0635,1.0029,0.06,0.00,-0.06,2.14,0.64,50.69
16.574021,0.0020,0.0630,1.0020,0.00,0.00,0.00,2.14,0.64,50.69
16.574021,0.0020,0.0625,1.0024,0.00,0.00,-0.06,2.14,0.64,50.69
16.603200,0.0029,0.0620,1.0020,0.00,0.00,-0.06,2.14,0.64,50.69
16.603200,0.0024,0.0635,1.0029,0.00,0.00,-0.06,2.14,0.64,50.70
16.663998,0.0020,0.0630,1.0020,0.00,0.00,-0.06,2.14,0.64,50.70
16.663998,0.0020,0.0630,1.0020,0.00,0.00,0.00,2.14,0.64,50.70
16.694142,0.0020,0.0625,1.0020,0.00,0.00,-0.06,2.14,0.64,50.70
16.694142,0.0020,0.0630,1.0034,0.00,0.00,-0.06,2.14,0.64,50.70
16.723267,0.0020,0.0625,1.0024,0.00,0.00,0.00,2.14,0.64,50.70
16.723267,0.0020,0.0630,1.0015,0.00,0.00,0.00,2.14,0.64,50.70
16.784124,0.0020,0.0630,1.0005,0.00,0.00,0.00,2.14,0.64,50.71
16.784124,0.0029,0.0635,1.0020,0.00,0.00,0.00,2.14,0.64,50.71
16.813259,0.0024,0.0635,1.0029,0.00,0.00,-0.06,2.14,0.64,50.71
16.813259,0.0020,0.0625,1.0020,0.00,0.00,0.00,2.14,0.64,50.71
16.843551,0.0024,0.0630,1.0020,0.00,0.00,0.00,2.14,0.64,50.71
16.843551,0.0024,0.0635,1.0020,0.00,0.00,0.00,2.14,0.64,50.71
16.903998,0.0024,0.0630,1.0020,0.00,0.00,-0.06,2.14,0.64,50.71
16.903998,0.0015,0.0630,1.0020,0.06,0.00,-0.06,2.14,0.64,50.72
16.933224,0.0020,0.0625,1.0034,0.06,0.00,-0.06,2.14,0.64,50.72
16.933224,0.0020,0.0625,1.0020,0.00,0.00,-0.06,2.14,0.64,50.72
16.963943,0.0024,0.0630,1.0024,0.00,0.00,0.00,2.14,0.64,50.72
16.963943,0.0015,0.0635,1.0024,0.00,0.00,-0.06,2.14,0.64,50.72
17.024001,0.0024,0.0625,1.0024,0.00,0.00,0.00,2.14,0.64,50.72
17.024001,0.0020,0.0630,1.0020,0.06,0.00,0.00,2.14,0.64,50.72
17.053224,0.0015,0.0630,1.0020,0.00,0.00,0.00,2.14,0.64,50.73
17.053224,0.0015,0.0635,1.0020,0.00,0.00,-0.06,2.14,0.64,50.73
17.083975,0.0010,0.0635,1.0020,0.00,0.00,0.00,2.14,0.64,50.73
17.083975,0.0020,0.0625,1.0010,0.12,0.00,0.00,2.14,0.64,50.73
17.144644,0.0020,0.0630,1.0024,0.00,0.00,-0.06,2.14,0.64,50.73
17.144644,0.0029,0.0625,1.0020,0.00,0.00,-0.06,2.14,0.64,50.73
17.173497,0.0024,0.0630,1.0020,0.00,0.00,0.00,2.14,0.64,50.73
17.173497,0.0020,0.0635,1.0020,0.00,0.00,0.00,2.14,0.64,50.73
17.204005,0.0020,0.0630,1.0024,0.00,0.00,0.00,2.14,0.64,50.74
17.204005,0.0024,0.0635,1.0015,0.00,0.00,0.00,2.14,0.64,50.74
17.263971,0.0020,0.0630,1.0015,0.00,0.00,0.00,2.14,0.64,50.74
17.263971,0.0024,0.0635,1.0024,0.00,0.00,0.00,2.14,0.64,50.74
17.293180,0.0015,0.0640,1.0024,0.00,0.00,0.00,2.14,0.64,50.75
17.293180,0.0020,0.0630,1.0020,0.00,0.00,-0.06,2.14,0.64,50.75
17.324016,0.0020,0.0635,1.0024,0.00,0.00,0.00,2.14,0.64,50.75
17.324016,0.0024,0.0630,1.0029,0.00,0.00,0.00,2.14,0.64,50.75
17.384012,0.0015,0.0635,1.0034,0.00,0.00,-0.06,2.14,0.64,50.75
17.384012,0.0020,0.0635,1.0029,0.00,0.00,0.00,2.14,0.64,50.75
17.413233,0.0024,0.0630,1.0010,0.00,0.00,0.00,2.14,0.64,50.75
17.413233,0.0024,0.0630,1.0024,0.00,0.00,0.00,2.14,0.64,50.76
17.444392,0.0020,0.0635,1.0024,0.06,0.00,0.00,2.14,0.64,50.76
17.444392,0.0020,0.0630,1.0024,0.00,0.00,-0.06,2.14,0.64,50.76
17.504832,0.0020,0.0630,1.0015,0.00,0.00,-0.06,2.14,0.64,50.76
17.504832,0.0020,0.0635,1.0024,0.06,0.00,0.00,2.14,0.64,50.76
17.533711,0.0020,0.0635,1.0020,0.00,0.00,0.00,2.14,0.64,50.76
17.533711,0.0029,0.0625,1.0015,0.00,0.00,-0.06,2.14,0.64,50.76
17.594145,0.0020,0.0630,1.0010,0.00,0.00,0.00,2.14,0.64,50.76
17.594145,0.0024,0.0630,1.0024,0.06,0.00,-0.06,2.14,0.64,50.77
17.623309,0.0020,0.0635,1.0020,0.06,0.00,0.00,2.14,0.64,50.77
17.623309,0.0020,0.0635,1.0020,0.00,0.00,-0.06,2.14,0.64,50.77
17.654026,0.0024,0.0635,1.0015,0.00,0.00,-0.06,2.14,0.64,50.77
17.654026,0.0015,0.0635,1.0015,0.06,0.00,-0.06,2.14,0.64,50.77
17.713281,0.0020,0.0635,1.0020,0.00,0.00,-0.06,2.14,0.64,50.77
17.713281,0.0015,0.0635,1.0024,0.00,0.00,0.00,2.14,0.64,50.77
17.743501,0.0020,0.0630,1.0015,0.00,0.00,0.00,2.14,0.64,50.77
17.743501,0.0015,0.0630,1.0029,0.00,0.00,-0.06,2.14,0.64,50.78
17.774036,0.0020,0.0625,1.0015,0.00,0.00,-0.06,2.14,0.64,50.78
17.774036,0.0010,0.0630,1.0020,0.00,0.00,-0.06,2.14,0.64,50.78
17.834032,0.0020,0.0630,1.0029,0.00,0.00,0.00,2.14,0.64,50.78
17.834032,0.0010,0.0635,1.0020,0.00,0.00,-0.06,2.14,0.64,50.78
17.863232,0.0024,0.0635,1.0015,0.00,0.00,-0.06,2.14,0.64,50.78
17.863232,0.0020,0.0625,1.0015,0.00,0.00,0.00,2.14,0.64,50.78
17.894180,0.0024,0.0630,1.0034,0.00,0.00,-0.06,2.14,0.64,50.78
17.894180,0.0010,0.0630,1.0020,0.00,0.00,-0.06,2.14,0.64,50.79
17.953981,0.0020,0.0630,1.0020,0.06,0.00,-0.06,2.14,0.64,50.79
17.953981,0.0020,0.0630,1.0015,0.00,0.00,-0.06,2.14,0.64,50.79
17.983212,0.0020,0.0630,1.0024,0.00,0.00,0.00,2.14,0.64,50.79
17.983212,0.0024,0.0635,1.0020,0.06,0.06,-0.06,2.14,0.64,50.80
18.013079,0.0020,0.0625,1.0020,0.00,0.00,0.00,2.14,0.64,50.80
18.013079,0.0015,0.0630,1.0015,0.00,0.00,0.00,2.14,0.64,50.80
18.073257,0.0020,0.0630,1.0029,0.06,0.00,-0.06,2.14,0.64,50.80
18.073257,0.0015,0.0635,1.0024,0.00,0.00,-0.06,2.14,0.64,50.80
18.103174,0.0020,0.0640,1.0024,0.06,0.00,0.00,2.14,0.64,50.80
18.103174,0.0015,0.0630,1.0024,0.00,0.00,-0.06,2.14,0.64,50.80
18.134079,0.0029,0.0635,1.0029,0.06,0.00,0.00,2.14,0.64,50.80
18.134079,0.0029,0.0630,1.0020,0.00,0.00,-0.06,2.14,0.64,50.80
18.194036,0.0015,0.0625,1.0020,0.00,0.00,-0.06,2.14,0.64,50.81
18.194036,0.0020,0.0635,1.0024,0.00,0.00,-0.06,2.14,0.64,50.81
18.223293,0.0015,0.0630,1.0024,0.06,0.00,0.00,2.14,0.64,50.81
18.223293,0.0024,0.0630,1.0024,0.00,0.00,-0.06,2.14,0.64,50.81
18.254031,0.0020,0.0635,1.0020,0.00,0.00,0.00,2.14,0.64,50.81
18.254031,0.0020,0.0635,1.0015,0.06,0.00,0.00,2.14,0.64,50.81
18.314025,0.0015,0.0635,1.0015,0.00,0.00,-0.12,2.14,0.64,50.81
18.314025,0.0024,0.0635,1.0024,0.00,0.00,-0.06,2.14,0.64,50.81
18.343545,0.0015,0.0635,1.0020,0.00,0.06,-0.06,2.14,0.64,50.82
18.343545,0.0020,0.0620,1.0020,0.00,0.00,-0.06,2.14,0.64,50.82
18.374028,0.0020,0.0625,1.0015,0.00,0.00,0.00,2.14,0.64,50.82
18.374028,0.0020,0.0635,1.0024,0.00,0.00,-0.06,2.14,0.64,50.82
18.434054,0.0015,0.0630,1.0020,0.00,0.00,0.00,2.14,0.64,50.82
18.434054,0.0015,0.0625,1.0020,0.00,0.00,-0.12,2.14,0.64,50.82
18.463252,0.0020,0.0625,1.0020,0.06,0.00,-0.06,2.14,0.64,50.82
18.463252,0.0020,0.0625,1.0020,0.00,0.00,-0.06,2.14,0.64,50.82
18.493317,0.0024,0.0625,1.0024,0.00,0.00,-0.06,2.14,0.64,50.82
18.493317,0.0024,0.0635,1.0015,0.00,0.00,-0.06,2.14,0.64,50.83
18.553369,0.0024,0.0640,1.0024,0.00,0.00,-0.06,2.14,0.64,50.83
18.553369,0.0015,0.0635,1.0015,0.00,0.00,0.00,2.14,0.64,50.83
18.583344,0.0024,0.0625,1.0020,0.00,0.00,-0.06,2.14,0.64,50.83
18.583344,0.0024,0.0630,1.0029,0.00,0.00,-0.06,2.14,0.64,50.83
18.613403,0.0024,0.0640,1.0020,0.00,0.00,-0.06,2.14,0.64,50.83
18.613403,0.0020,0.0630,1.0020,0.00,0.00,0.00,2.14,0.64,50.83
18.673876,0.0020,0.0630,1.0015,0.00,0.00,0.00,2.14,0.64,50.83
18.673876,0.0015,0.0635,1.0015,0.00,0.00,0.00,2.14,0.64,50.83
18.703317,0.0024,0.0640,1.0020,0.00,0.00,-0.06,2.14,0.64,50.84
18.703317,0.0024,0.0630,1.0020,0.00,0.00,-0.06,2.14,0.64,50.84
18.733342,0.0020,0.0630,1.0020,0.00,0.00,0.00,2.14,0.64,50.84
18.733342,0.0015,0.0630,1.0024,0.00,0.00,-0.06,2.14,0.64,50.84
18.793322,0.0015,0.0620,1.0020,0.06,0.00,-0.06,2.14,0.64,50.84
18.793322,0.0024,0.0620,1.0020,0.00,0.00,-0.06,2.14,0.64,50.84
18.823291,0.0024,0.0625,1.0020,0.00,0.00,-0.06,2.14,0.64,50.84
18.823291,0.0015,0.0635,1.0015,0.00,0.00,-0.06,2.14,0.64,50.84
18.853304,0.0020,0.0635,1.0024,0.00,0.00,0.00,2.14,0.64,50.84
18.853304,0.0024,0.0635,1.0020,0.00,0.00,0.00,2.14,0.64,50.85
18.914055,0.0020,0.0630,1.0020,0.06,0.00,0.00,2.14,0.64,50.85
18.914055,0.0010,0.0630,1.0020,0.00,0.00,0.00,2.14,0.64,50.85
18.944246,0.0020,0.0630,1.0015,0.00,0.00,-0.06,2.14,0.64,50.85
18.944246,0.0015,0.0635,1.0005,0.00,0.00,-0.06,2.14,0.64,50.85
19.004076,0.0015,0.0630,1.0015,0.00,0.00,-0.06,2.14,0.64,50.86
19.004076,0.0024,0.0640,1.0029,0.00,0.00,0.00,2.14,0.64,50.86
19.033287,0.0020,0.0630,1.0020,0.00,0.00,0.00,2.14,0.64,50.86
19.033287,0.0024,0.0625,1.0029,0.00,0.00,-0.06,2.14,0.64,50.86
19.064055,0.0020,0.0625,1.0024,0.00,0.00,0.00,2.14,0.64,50.86
19.064055,0.0020,0.0630,1.0024,0.06,0.00,-0.06,2.14,0.64,50.86
19.124057,0.0020,0.0635,1.0029,0.00,0.00,-0.06,2.14,0.64,50.86
19.124057,0.0020,0.0630,1.0015,0.00,0.00,0.00,2.14,0.64,50.86
19.153278,0.0020,0.0635,1.0015,0.00,0.00,0.00,2.14,0.64,50.86
19.153278,0.0020,0.0630,1.0020,0.00,0.00,-0.06,2.14,0.64,50.87
19.184438,0.0020,0.0625,1.0010,0.00,0.00,-0.06,2.14,0.64,50.87
19.184438,0.0020,0.0630,1.0020,0.00,0.00,-0.06,2.14,0.64,50.87
19.244429,0.0020,0.0620,1.0020,0.00,0.00,-0.06,2.14,0.64,50.87
19.244429,0.0015,0.0625,1.0020,0.00,0.00,0.00,2.14,0.64,50.87
19.273208,0.0010,0.0630,1.0020,0.00,0.00,-0.06,2.14,0.64,50.87
19.273208,0.0015,0.0630,1.0020,0.00,0.00,0.00,2.14,0.64,50.87
19.303344,0.0020,0.0635,1.0020,0.00,0.00,-0.06,2.14,0.64,50.87
19.303344,0.0015,0.0635,1.0024,0.00,0.00,-0.06,2.14,0.64,50.87
19.364169,0.0024,0.0630,1.0020,0.00,0.00,-0.06,2.14,0.64,50.87
19.364169,0.0020,0.0630,1.0024,0.00,0.00,0.00,2.14,0.64,50.88
19.393211,0.0020,0.0635,1.0015,0.06,0.00,0.00,2.14,0.64,50.88
19.393211,0.0024,0.0645,1.0020,0.06,0.00,0.00,2.14,0.64,50.88
19.424071,0.0010,0.0630,1.0024,0.00,0.00,-0.06,2.14,0.64,50.88
19.424071,0.0010,0.0620,1.0020,0.00,0.00,-0.06,2.14,0.64,50.88
19.484285,0.0024,0.0630,1.0024,0.00,0.00,-0.06,2.14,0.64,50.88
19.484285,0.0010,0.0625,1.0024,0.00,0.00,0.00,2.14,0.64,50.88
19.513290,0.0015,0.0620,1.0015,0.00,0.00,-0.12,2.14,0.64,50.88
19.513290,0.0015,0.0625,1.0010,0.00,0.00,-0.06,2.14,0.64,50.88
19.544515,0.0015,0.0630,1.0020,0.00,0.00,0.00,2.14,0.64,50.88
19.544515,0.0024,0.0625,1.0020,0.00,0.00,0.00,2.14,0.64,50.89
19.604029,0.0024,0.0630,1.0024,0.00,0.00,-0.06,2.14,0.64,50.89
19.604029,0.0020,0.0640,1.0015,0.00,0.00,0.00,2.14,0.64,50.89
19.633296,0.0020,0.0630,1.0015,0.00,0.00,0.00,2.14,0.64,50.89
19.633296,0.0024,0.0635,1.0015,0.00,0.00,0.00,2.14,0.64,50.89
19.664008,0.0020,0.0630,1.0010,0.00,0.00,0.00,2.14,0.64,50.89
19.664008,0.0024,0.0635,1.0015,0.00,0.00,-0.06,2.14,0.64,50.89
19.724066,0.0015,0.0625,1.0020,0.00,0.00,-0.06,2.14,0.64,50.89
19.724066,0.0020,0.0635,1.0015,0.00,0.00,0.00,2.14,0.64,50.89
19.753315,0.0015,0.0635,1.0020,0.00,0.00,0.00,2.14,0.64,50.89
19.753315,0.0015,0.0635,1.0020,0.00,0.00,0.00,2.14,0.64,50.90
19.783360,0.0015,0.0635,1.0020,0.00,0.00,0.00,2.14,0.64,50.90
19.783360,0.0015,0.0645,1.0005,0.06,0.00,0.00,2.14,0.64,50.90
19.873538,0.0020,0.0630,1.0020,0.00,0.00,0.00,2.14,0.64,50.90
19.873538,0.0015,0.0620,1.0015,0.00,0.00,-0.06,2.14,0.64,50.90
19.875701,0.0020,0.0635,1.0005,0.00,0.00,-0.06,2.14,0.64,50.91
19.875701,0.0020,0.0635,1.0015,0.00,0.00,-0.06,2.14,0.64,50.91
19.903325,0.0024,0.0635,1.0010,0.00,0.00,-0.06,2.14,0.64,50.91
19.903325,0.0020,0.0625,1.0010,0.00,0.00,0.00,2.14,0.64,50.91
19.963140,0.0024,0.0625,1.0015,0.00,0.00,0.00,2.14,0.64,50.91
19.963140,0.0024,0.0635,1.0020,0.00,0.00,-0.06,2.14,0.64,50.91
19.993348,0.0024,0.0625,1.0015,0.00,0.00,-0.06,2.14,0.64,50.91
19.993348,0.0024,0.0625,1.0010,0.00,0.00,-0.06,2.14,0.64,50.91
20.023279,0.0020,0.0630,1.0010,0.00,0.00,0.00,2.14,0.64,50.91
20.023279,0.0020,0.0635,1.0010,0.00,0.00,-0.06,2.14,0.64,50.91
20.084083,0.0024,0.0620,1.0020,0.00,0.00,0.00,2.14,0.64,50.91
20.084083,0.0024,0.0630,1.0020,0.00,0.00,0.00,2.14,0.64,50.92
20.113368,0.0020,0.0635,1.0020,0.00,0.00,-0.06,2.14,0.64,50.92
20.113368,0.0034,0.0625,1.0015,0.00,0.00,0.00,2.14,0.64,50.92
20.144363,0.0024,0.0635,1.0024,0.00,0.00,0.00,2.14,0.64,50.92
20.144363,0.0020,0.0630,1.0015,0.00,0.00,-0.06,2.14,0.64,50.92
20.204085,0.0024,0.0630,1.0010,0.00,0.00,-0.06,2.14,0.64,50.92
20.204085,0.0015,0.0630,1.0015,0.00,0.00,0.00,2.14,0.64,50.92
20.233317,0.0015,0.0625,1.0010,0.00,0.00,-0.06,2.14,0.64,50.92
20.233317,0.0024,0.0625,1.0020,0.00,0.00,0.00,2.14,0.64,50.92
20.264164,0.0015,0.0625,1.0005,0.00,0.00,-0.06,2.14,0.64,50.92
20.264164,0.0020,0.0635,1.0000,0.00,0.00,-0.06,2.14,0.64,50.92
20.324169,0.0015,0.0625,1.0020,0.00,0.00,-0.06,2.14,0.64,50.93
20.324169,0.0024,0.0625,1.0015,0.06,0.00,0.00,2.14,0.64,50.93
20.354098,0.0024,0.0635,1.0015,0.00,0.00,-0.06,2.14,0.64,50.93
20.354098,0.0015,0.0640,1.0015,0.00,0.00,-0.06,2.14,0.64,50.93
20.414096,0.0015,0.0630,1.0015,0.00,0.00,-0.06,2.14,0.64,50.93
20.414096,0.0015,0.0630,1.0020,0.00,0.00,0.00,2.14,0.64,50.93
20.444809,0.0020,0.0630,1.0024,0.00,0.00,-0.06,2.14,0.64,50.93
20.444809,0.0029,0.0635,1.0020,0.00,0.00,0.00,2.14,0.64,50.93
20.475856,0.0020,0.0625,1.0034,0.00,0.00,-0.06,2.14,0.64,50.93
20.475856,0.0020,0.0630,1.0015,0.00,0.00,0.00,2.14,0.64,50.93
20.533320,0.0015,0.0630,1.0015,0.00,0.00,0.00,2.14,0.64,50.93
20.533320,0.0024,0.0625,1.0015,0.00,0.00,-0.06,2.14,0.64,50.94
20.564117,0.0029,0.0630,1.0020,0.00,0.00,-0.06,2.14,0.64,50.94
20.564117,0.0024,0.0625,1.0024,0.00,0.00,0.00,2.14,0.64,50.94
20.593311,0.0020,0.0630,1.0020,0.00,0.00,0.00,2.14,0.64,50.94
20.593311,0.0015,0.0630,1.0024,0.00,0.00,0.00,2.14,0.64,50.94
20.654131,0.0020,0.0625,1.0010,0.00,0.00,0.00,2.14,0.64,50.94
20.654131,0.0020,0.0625,1.0015,0.00,0.00,-0.06,2.14,0.64,50.94
20.685355,0.0020,0.0620,1.0020,0.00,0.00,-0.06,2.14,0.64,50.94
20.685355,0.0020,0.0625,1.0015,0.00,0.00,-0.06,2.14,0.64,50.94
20.713655,0.0020,0.0635,1.0024,0.00,0.00,0.00,2.14,0.64,50.94
20.713655,0.0020,0.0630,1.0010,0.00,0.00,-0.06,2.14,0.64,50.94
20.774285,0.0024,0.0625,1.0024,0.00,0.00,0.00,2.14,0.64,50.95
20.774285,0.0020,0.0625,1.0020,0.00,0.00,0.00,2.14,0.64,50.95
20.803337,0.0010,0.0630,1.0024,0.00,0.00,0.00,2.14,0.64,50.95
20.803337,0.0029,0.0640,1.0020,0.00,0.06,-0.06,2.14,0.64,50.95
20.834111,0.0015,0.0630,1.0020,0.00,0.00,0.00,2.14,0.64,50.95
20.834111,0.0020,0.0630,1.0024,0.00,0.00,-0.06,2.14,0.64,50.95
20.894098,0.0029,0.0625,1.0020,0.06,0.00,0.00,2.14,0.64,50.95
20.894098,0.0024,0.0630,1.0024,0.00,0.06,-0.06,2.14,0.64,50.95
20.923355,0.0020,0.0625,1.0010,0.00,0.00,0.00,2.14,0.64,50.95
20.923355,0.0029,0.0625,1.0020,0.00,0.00,0.00,2.14,0.64,50.95
20.954111,0.0020,0.0630,1.0020,0.00,0.00,-0.06,2.14,0.64,50.95
20.954111,0.0020,0.0625,1.0034,0.00,0.00,0.00,2.14,0.64,50.95
21.014173,0.0024,0.0635,1.0024,0.00,0.00,-0.06,2.14,0.64,50.96
21.014173,0.0020,0.0630,1.0020,0.00,0.06,0.00,2.14,0.64,50.96
21.043652,0.0020,0.0630,1.0015,0.00,0.00,0.00,2.14,0.64,50.96
21.043652,0.0015,0.0630,1.0029,0.00,0.00,-0.06,2.14,0.64,50.96
21.074113,0.0020,0.0630,1.0024,0.00,0.00,0.00,2.14,0.64,50.96
21.074113,0.0010,0.0630,1.0020,0.00,0.00,-0.06,2.14,0.64,50.96
21.134157,0.0024,0.0635,1.0020,0.00,0.00,0.00,2.14,0.64,50.97
21.134157,0.0015,0.0635,1.0015,0.00,0.00,-0.06,2.14,0.64,50.97
21.163340,0.0024,0.0635,1.0020,0.06,0.06,-0.06,2.14,0.64,50.97
21.163340,0.0015,0.0625,1.0015,0.00,0.00,-0.06,2.14,0.64,50.97
21.194116,0.0024,0.0630,1.0005,0.00,0.00,-0.06,2.14,0.64,50.97
21.194116,0.0020,0.0630,1.0020,0.00,0.00,-0.06,2.14,0.64,50.97
21.254054,0.0015,0.0625,1.0020,0.00,0.00,0.00,2.14,0.64,50.97
21.254054,0.0020,0.0625,1.0020,0.00,0.06,0.00,2.14,0.64,50.97
21.283356,0.0029,0.0630,1.0010,0.00,0.00,-0.06,2.14,0.64,50.97
21.283356,0.0020,0.0620,1.0020,0.00,0.00,0.00,2.14,0.64,50.97
21.314095,0.0020,0.0635,1.0020,0.06,0.00,0.00,2.14,0.64,50.97
21.314095,0.0020,0.0625,1.0024,0.00,0.00,0.00,2.14,0.64,50.97
21.374115,0.0020,0.0635,1.0029,0.00,0.00,0.00,2.14,0.64,50.98
21.374115,0.0015,0.0630,1.0015,0.00,0.00,-0.06,2.14,0.64,50.98
21.403301,0.0020,0.0635,1.0020,0.00,0.00,-0.06,2.14,0.64,50.98
21.403301,0.0020,0.0630,1.0024,0.00,0.00,0.00,2.14,0.64,50.98
21.434167,0.0020,0.0630,1.0024,0.00,0.00,0.00,2.14,0.64,50.98
21.434167,0.0015,0.0635,1.0010,0.00,0.00,0.00,2.14,0.64,50.98
21.494117,0.0015,0.0630,1.0024,0.00,0.00,0.00,2.14,0.64,50.98
21.494117,0.0015,0.0630,1.0015,0.00,0.00,-0.06,2.14,0.64,50.98
21.523342,0.0020,0.0630,1.0024,0.00,0.00,0.00,2.14,0.64,50.98
21.523342,0.0015,0.0625,1.0020,0.00,0.00,-0.06,2.14,0.64,50.98
21.553363,0.0015,0.0630,1.0010,0.00,0.00,0.00,2.14,0.64,50.98
21.553363,0.0010,0.0630,1.0020,0.00,0.00,-0.06,2.14,0.64,50.98
21.614267,0.0020,0.0620,1.0034,0.00,0.00,-0.06,2.14,0.64,50.99
21.614267,0.0015,0.0625,1.0024,0.00,0.00,0.00,2.14,0.64,50.99
21.644350,0.0015,0.0630,1.0024,0.00,0.00,0.00,2.14,0.64,50.99
21.644350,0.0020,0.0635,1.0010,0.00,0.00,-0.06,2.14,0.64,50.99
21.673489,0.0020,0.0635,1.0024,0.00,0.00,-0.06,2.14,0.64,50.99
21.673489,0.0024,0.0635,1.0020,0.00,0.00,-0.06,2.14,0.64,50.99
21.734532,0.0020,0.0640,1.0020,0.00,0.00,0.00,2.14,0.64,50.99
21.734532,0.0015,0.0630,1.0015,0.00,0.00,0.00,2.14,0.64,50.99
21.763714,0.0029,0.0630,1.0020,0.00,0.00,-0.06,2.14,0.64,50.99
21.763714,0.0020,0.0635,1.0024,0.00,0.00,0.00,2.14,0.64,50.99
21.823500,0.0020,0.0640,1.0020,0.00,0.00,0.00,2.14,0.64,50.99
21.823500,0.0020,0.0630,1.0020,0.00,0.00,0.00,2.14,0.64,50.99
21.854158,0.0024,0.0640,1.0015,0.00,0.00,-0.06,2.14,0.64,51.00
21.854158,0.0020,0.0635,1.0020,0.00,0.00,0.00,2.14,0.64,51.00
21.883312,0.0015,0.0630,1.0020,0.00,0.00,-0.06,2.14,0.64,51.00
21.883312,0.0010,0.0625,1.0024,0.00,0.00,-0.06,2.14,0.64,51.00
21.974320,0.0015,0.0630,1.0015,0.00,0.00,-0.12,2.14,0.64,51.00
21.974320,0.0015,0.0630,1.0020,0.00,0.00,-0.06,2.14,0.64,51.00
21.976426,0.0015,0.0630,1.0024,0.00,0.00,-0.06,2.14,0.64,51.00
21.976426,0.0015,0.0625,1.0024,0.00,0.00,0.00,2.14,0.64,51.00
22.006097,0.0015,0.0635,1.0020,0.00,0.00,0.00,2.14,0.64,51.00
22.006097,0.0020,0.0635,1.0010,0.06,0.00,-0.06,2.14,0.64,51.00
22.064141,0.0020,0.0620,1.0024,0.06,0.00,-0.06,2.14,0.64,51.00
22.064141,0.0024,0.0625,1.0015,0.00,0.00,-0.06,2.14,0.64,51.00
22.093396,0.0020,0.0630,1.0015,0.00,0.00,0.00,2.14,0.64,51.00
22.093396,0.0024,0.0635,1.0029,0.00,0.00,0.00,2.14,0.64,51.01
22.123418,0.0020,0.0640,1.0029,0.00,0.00,-0.06,2.14,0.64,51.01
22.123418,0.0020,0.0625,1.0020,0.00,0.00,0.00,2.14,0.64,51.01
22.183411,0.0029,0.0630,1.0020,0.00,0.00,0.00,2.14,0.64,51.01
22.183411,0.0029,0.0630,1.0005,0.00,0.00,0.00,2.14,0.64,51.01
22.214137,0.0020,0.0625,1.0015,0.00,0.00,-0.06,2.14,0.64,51.01
22.214137,0.0020,0.0630,1.0015,0.00,0.00,-0.06,2.14,0.64,51.01
22.244353,0.0020,0.0630,1.0010,0.00,0.00,-0.06,2.14,0.64,51.02
22.244353,0.0015,0.0625,1.0024,0.00,0.00,0.00,2.14,0.64,51.02
22.304129,0.0020,0.0630,1.0020,0.00,0.00,0.00,2.14,0.64,51.02
22.304129,0.0015,0.0630,1.0020,0.00,0.00,-0.06,2.14,0.64,51.02
22.333343,0.0020,0.0625,1.0020,0.06,0.00,-0.06,2.14,0.64,51.02
22.333343,0.0020,0.0625,1.0010,0.06,0.00,-0.06,2.14,0.64,51.02
22.364185,0.0020,0.0635,1.0024,0.00,0.00,-0.06,2.14,0.64,51.02
22.364185,0.0015,0.0635,1.0020,0.00,0.00,0.00,2.14,0.64,51.02
22.424296,0.0020,0.0625,1.0010,0.00,0.00,0.00,2.14,0.64,51.02
22.424296,0.0024,0.0630,1.0015,0.00,0.00,0.00,2.14,0.64,51.02
22.453341,0.0024,0.0630,1.0029,0.00,0.00,0.00,2.14,0.64,51.02
22.453341,0.0015,0.0630,1.0020,0.00,0.00,0.00,2.14,0.64,51.02
22.483681,0.0015,0.0620,1.0015,0.00,0.00,-0.06,2.14,0.64,51.02
22.483681,0.0024,0.0640,1.0010,0.00,0.00,-0.06,2.14,0.64,51.03
22.544768,0.0024,0.0630,1.0010,0.00,0.00,-0.06,2.14,0.64,51.03
22.544768,0.0020,0.0625,1.0015,0.00,0.00,0.00,2.14,0.64,51.03
22.573386,0.0005,0.0635,1.0020,0.00,0.00,0.00,2.14,0.64,51.03
22.573386,0.0020,0.0630,1.0015,0.00,0.00,0.00,2.14,0.64,51.03
22.604531,0.0020,0.0620,1.0010,0.00,0.00,-0.06,2.14,0.64,51.03
22.604531,0.0020,0.0625,1.0024,0.06,0.00,0.00,2.14,0.64,51.03
22.664158,0.0015,0.0625,1.0015,0.06,0.00,-0.06,2.14,0.64,51.03
22.664158,0.0015,0.0625,1.0015,0.06,0.00,-0.06,2.14,0.64,51.03
22.696037,0.0015,0.0635,1.0020,0.06,0.00,0.00,2.14,0.64,51.03
22.696037,0.0015,0.0625,1.0010,0.06,0.06,-0.12,2.14,0.64,51.03
22.724042,0.0015,0.0635,1.0005,0.06,0.00,0.00,2.14,0.64,51.03
22.724042,0.0020,0.0640,1.0015,0.00,0.00,0.00,2.14,0.64,51.03
22.783356,0.0020,0.0645,1.0015,0.00,0.00,-0.06,2.14,0.64,51.03
22.783356,0.0010,0.0640,1.0005,0.00,0.00,0.00,2.14,0.64,51.04
22.813403,0.0015,0.0640,1.0010,0.06,0.00,-0.06,2.14,0.64,51.04
22.813403,0.0029,0.0635,1.0024,0.00,0.00,-0.06,2.14,0.64,51.04
22.843715,0.0010,0.0635,1.0029,0.00,0.00,-0.06,2.14,0.64,51.04
22.843715,0.0029,0.0625,1.0024,0.00,0.00,-0.06,2.14,0.64,51.04
22.903570,0.0015,0.0620,1.0029,0.00,0.00,-0.06,2.14,0.64,51.04
22.903570,0.0020,0.0620,1.0024,0.00,0.00,-0.06,2.14,0.64,51.04
22.933455,0.0024,0.0620,1.0020,0.00,-0.06,-0.06,2.14,0.64,51.04
22.933455,0.0029,0.0625,1.0020,0.00,0.00,-0.06,2.14,0.64,51.04
22.963433,0.0020,0.0625,1.0024,0.00,0.00,0.00,2.14,0.64,51.04
22.963433,0.0034,0.0630,1.0010,0.00,0.00,-0.06,2.14,0.64,51.04
23.023785,0.0029,0.0635,1.0015,0.00,0.00,0.00,2.14,0.64,51.04
23.023785,0.0034,0.0625,1.0010,0.00,0.00,-0.06,2.14,0.64,51.04
23.053401,0.0029,0.0635,1.0005,0.00,0.00,0.00,2.14,0.64,51.04
23.053401,0.0020,0.0625,1.0005,0.06,0.00,-0.06,2.14,0.64,51.05
23.083432,0.0020,0.0630,1.0020,0.00,0.00,0.00,2.14,0.64,51.05
23.083432,0.0020,0.0625,1.0020,0.00,0.00,-0.06,2.14,0.64,51.05
23.144512,0.0015,0.0630,1.0020,0.06,0.00,-0.06,2.14,0.64,51.05
23.144512,0.0020,0.0625,1.0024,0.06,0.06,0.00,2.14,0.64,51.05
23.173387,0.0015,0.0630,1.0024,0.06,0.00,-0.06,2.14,0.64,51.05
23.173387,0.0010,0.0630,1.0010,0.00,0.00,0.00,2.14,0.64,51.05
23.233488,0.0010,0.0630,1.0024,0.06,0.00,0.00,2.14,0.64,51.05
23.233488,0.0020,0.0630,1.0020,0.00,0.00,-0.06,2.14,0.64,51.05
23.263462,0.0015,0.0630,1.0029,0.00,0.00,0.00,2.14,0.64,51.05
23.263462,0.0020,0.0610,0.9976,0.12,0.06,-0.06,2.14,0.64,51.05
23.293461,0.0010,0.0669,1.0054,0.31,-0.06,0.00,2.14,0.64,51.05
23.293461,0.0010,0.0615,1.0010,0.06,0.00,0.00,2.14,0.64,51.05
23.354199,0.0010,0.0654,1.0015,-0.12,0.00,-0.06,2.14,0.64,51.05
23.354199,0.0010,0.0635,1.0020,0.00,-0.06,0.00,2.14,0.65,51.05
23.383371,0.0010,0.0615,1.0015,0.00,0.00,-0.06,2.14,0.65,51.06
23.383371,0.0015,0.0630,1.0005,-0.06,0.00,-0.06,2.14,0.65,51.06
23.413513,0.0020,0.0640,1.0005,0.00,-0.06,0.00,2.14,0.65,51.06
23.413513,0.0015,0.0625,1.0005,0.00,0.00,-0.06,2.14,0.65,51.06
23.503563,0.0024,0.0620,1.0005,0.12,0.00,0.00,2.14,0.65,51.06
23.503563,0.0020,0.0640,1.0015,0.06,0.00,-0.06,2.14,0.65,51.06
23.505888,0.0029,0.0630,1.0029,0.00,0.06,-0.06,2.14,0.65,51.06
23.505888,0.0020,0.0640,1.0029,0.18,0.06,0.00,2.14,0.65,51.06
23.533370,0.0029,0.0635,1.0024,0.18,0.06,-0.12,2.14,0.65,51.06
23.533370,0.0112,0.0591,1.0015,0.18,0.00,-0.06,2.14,0.65,51.06
23.594183,0.0078,0.0615,0.9946,0.37,-0.31,-0.12,2.14,0.65,51.06
23.594183,-0.0029,0.0615,1.0024,-0.61,-0.43,-0.18,2.14,0.65,51.06
23.623432,0.0034,0.0654,0.9990,-0.18,-0.06,-0.12,2.14,0.65,51.06
23.623432,0.0024,0.0625,1.0029,0.37,0.00,-0.06,2.14,0.65,51.06
23.653394,0.0005,0.0620,1.0024,-0.24,-0.06,0.00,2.14,0.65,51.06
23.653394,0.0000,0.0664,1.0029,-0.18,0.00,0.00,2.14,0.65,51.07
23.713494,0.0015,0.0635,1.0034,0.00,-0.12,0.00,2.14,0.65,51.07
23.713494,0.0015,0.0630,1.0034,-0.06,-0.06,-0.06,2.14,0.65,51.07
23.743715,0.0020,0.0645,1.0010,-0.12,-0.06,0.00,2.14,0.65,51.07
23.743715,0.0020,0.0625,0.9990,-0.31,0.00,0.00,2.14,0.65,51.07
23.774173,0.0015,0.0625,0.9966,-0.37,0.00,0.00,2.14,0.65,51.07
23.774173,0.0005,0.0620,1.0015,0.06,-0.12,0.00,2.14,0.65,51.07
23.834204,0.0000,0.0625,1.0020,0.06,0.00,-0.06,2.14,0.65,51.08
23.834204,0.0010,0.0635,1.0010,-0.06,0.00,-0.06,2.14,0.65,51.08
23.864169,0.0020,0.0630,1.0005,0.00,0.00,-0.12,2.14,0.65,51.08
23.864169,0.0020,0.0625,1.0020,0.18,0.00,-0.06,2.14,0.65,51.08
23.894146,0.0015,0.0635,1.0015,0.00,0.00,-0.06,2.14,0.65,51.08
23.894146,0.0005,0.0635,1.0010,-0.12,0.00,0.00,2.14,0.65,51.08
23.953460,0.0024,0.0635,1.0020,-0.06,0.00,0.00,2.14,0.65,51.08
23.953460,0.0020,0.0625,1.0020,0.06,0.00,0.00,2.14,0.65,51.08
23.983433,0.0029,0.0640,1.0029,0.00,0.00,0.00,2.14,0.65,51.08
23.983433,0.0024,0.0630,1.0024,0.00,0.00,0.00,2.14,0.65,51.08
24.013471,0.0020,0.0635,1.0015,0.00,0.00,-0.06,2.14,0.65,51.08
24.013471,0.0024,0.0635,1.0015,0.06,0.00,-0.06,2.14,0.65,51.08
24.074229,0.0020,0.0630,1.0015,0.00,0.00,-0.06,2.14,0.65,51.08
24.074229,0.0029,0.0630,1.0015,-0.06,0.00,-0.06,2.14,0.65,51.08
24.106164,0.0024,0.0635,1.0020,0.00,0.00,0.00,2.14,0.65,51.08
24.106164,0.0029,0.0630,1.0024,0.06,0.00,0.00,2.14,0.65,51.09
24.134369,0.0024,0.0635,1.0024,0.00,0.00,-0.12,2.14,0.65,51.09
24.134369,0.0024,0.0635,1.0020,0.00,0.00,0.00,2.14,0.65,51.09
24.194188,0.0020,0.0625,1.0029,0.06,0.00,-0.06,2.14,0.65,51.09
24.194188,0.0029,0.0640,1.0010,0.00,0.00,-0.06,2.14,0.65,51.09
24.223438,0.0029,0.0635,1.0020,-0.06,0.00,-0.06,2.14,0.65,51.09
24.223438,0.0015,0.0625,1.0020,0.00,0.00,0.00,2.14,0.65,51.09
24.254234,0.0015,0.0620,1.0020,0.06,0.06,0.00,2.14,0.65,51.09
24.254234,0.0020,0.0625,1.0029,0.00,0.00,-0.06,2.14,0.65,51.09
24.314258,0.0020,0.0620,1.0010,0.00,0.00,0.00,2.14,0.65,51.09
24.314258,0.0015,0.0625,1.0010,0.00,0.00,-0.06,2.14,0.65,51.09
24.343698,0.0020,0.0635,1.0015,0.00,0.00,-0.06,2.14,0.65,51.09
24.343698,0.0020,0.0630,1.0015,0.00,0.00,-0.06,2.14,0.65,51.09
24.373509,0.0020,0.0630,1.0010,0.00,0.00,0.00,2.14,0.65,51.09
24.373509,0.0024,0.0630,1.0020,0.00,0.00,-0.06,2.14,0.65,51.09
24.434225,0.0020,0.0630,1.0029,0.06,0.00,0.00,2.14,0.65,51.09
24.434225,0.0005,0.0630,1.0010,0.00,0.00,0.00,2.14,0.65,51.09
24.463416,0.0024,0.0620,1.0020,0.00,0.00,-0.06,2.14,0.65,51.10
24.463416,0.0034,0.0630,1.0024,0.00,0.00,-0.06,2.14,0.65,51.10
24.494197,0.0024,0.0625,1.0029,0.00,0.00,-0.06,2.14,0.65,51.10
24.494197,0.0024,0.0625,1.0000,0.00,0.00,0.00,2.14,0.65,51.10
24.554217,0.0020,0.0620,1.0020,0.00,0.00,-0.06,2.14,0.65,51.10
24.554217,0.0020,0.0630,1.0020,0.00,0.00,-0.06,2.14,0.65,51.10
24.583379,0.0020,0.0625,1.0010,0.06,0.00,-0.06,2.14,0.65,51.10
24.583379,0.0024,0.0630,1.0020,0.00,0.00,-0.12,2.14,0.65,51.10
24.644483,0.0029,0.0625,1.0020,0.00,0.00,-0.06,2.14,0.65,51.10
24.644483,0.0034,0.0630,1.0020,0.00,0.00,0.00,2.14,0.65,51.10
24.673447,0.0029,0.0630,1.0024,0.00,0.00,-0.06,2.14,0.65,51.10
24.673447,0.0020,0.0625,1.0020,0.00,0.00,-0.06,2.14,0.65,51.10
24.706130,0.0024,0.0630,1.0020,0.00,0.00,0.00,2.14,0.65,51.10
24.706130,0.0020,0.0630,1.0024,0.00,0.00,-0.06,2.14,0.65,51.10
24.763447,0.0015,0.0630,1.0029,0.00,0.06,-0.06,2.14,0.65,51.10
24.763447,0.0024,0.0630,1.0015,0.00,0.00,-0.06,2.14,0.65,51.10
24.794224,0.0020,0.0625,1.0020,0.06,0.00,0.00,2.14,0.65,51.10
24.794224,0.0020,0.0620,1.0024,0.00,0.00,0.00,2.14,0.65,51.11
24.823435,0.0015,0.0625,1.0020,0.00,0.00,0.00,2.14,0.65,51.11
24.823435,0.0024,0.0625,1.0024,0.00,0.00,-0.06,2.14,0.65,51.11
24.883450,0.0024,0.0625,1.0020,0.00,0.00,-0.06,2.14,0.65,51.11
24.883450,0.0015,0.0630,1.0015,0.00,0.00,-0.06,2.14,0.65,51.11
24.914231,0.0024,0.0640,1.0024,0.00,0.00,-0.06,2.14,0.65,51.11
24.914231,0.0029,0.0625,1.0020,0.00,0.00,-0.06,2.14,0.65,51.11
24.943736,0.0015,0.0630,1.0005,0.00,0.00,0.00,2.14,0.65,51.11
24.943736,0.0015,0.0620,1.0015,0.06,0.00,0.00,2.14,0.65,51.11
25.004217,0.0015,0.0635,1.0015,0.00,0.00,0.00,2.14,0.65,51.11
25.004217,0.0015,0.0630,1.0010,0.00,0.00,0.00,2.14,0.65,51.11
25.033410,0.0020,0.0635,1.0015,0.06,0.00,-0.06,2.14,0.65,51.11
25.033410,0.0010,0.0625,1.0015,0.00,0.00,-0.06,2.14,0.65,51.11
25.064252,0.0020,0.0620,1.0020,0.00,0.00,-0.12,2.14,0.65,51.11
25.064252,0.0020,0.0630,1.0010,0.00,0.00,-0.06,2.14,0.65,51.11
25.124230,0.0024,0.0625,1.0010,0.06,0.00,-0.06,2.14,0.65,51.11
25.124230,0.0015,0.0630,1.0015,0.00,0.00,-0.06,2.14,0.65,51.11
25.153518,0.0024,0.0620,1.0010,0.00,0.00,0.00,2.14,0.65,51.12
25.153518,0.0029,0.0630,1.0020,0.00,0.00,0.00,2.14,0.65,51.12
25.183479,0.0015,0.0625,1.0020,0.00,0.00,-0.06,2.14,0.65,51.12
25.183479,0.0024,0.0625,1.0024,0.00,0.00,-0.06,2.14,0.65,51.12
25.243739,0.0020,0.0625,1.0015,0.06,0.06,0.00,2.14,0.65,51.12
25.243739,0.0010,0.0625,1.0024,0.00,0.00,0.00,2.14,0.65,51.12
25.274239,0.0010,0.0635,1.0020,0.06,0.00,-0.06,2.14,0.65,51.12
25.274239,0.0020,0.0625,1.0020,0.00,0.00,0.00,2.14,0.65,51.12
25.306133,0.0020,0.0635,1.0024,0.00,0.00,0.00,2.14,0.65,51.12
25.306133,0.0024,0.0625,1.0020,0.00,0.00,0.00,2.14,0.65,51.12
25.364213,0.0020,0.0635,1.0015,0.00,0.06,-0.06,2.14,0.65,51.12
25.364213,0.0015,0.0630,1.0015,0.00,0.00,0.00,2.14,0.65,51.12
25.393494,0.0020,0.0625,1.0015,0.00,0.00,-0.06,2.14,0.65,51.12
25.393494,0.0010,0.0625,1.0015,0.00,0.00,0.00,2.14,0.65,51.12
25.424149,0.0024,0.0620,1.0005,0.00,0.00,0.00,2.14,0.65,51.12
25.424149,0.0024,0.0625,1.0020,0.06,0.00,-0.06,2.14,0.65,51.12
25.484232,0.0024,0.0615,1.0034,0.00,0.00,-0.06,2.14,0.65,51.12
25.484232,0.0024,0.0620,1.0020,0.00,0.00,0.00,2.14,0.65,51.12
25.513483,0.0024,0.0620,1.0015,0.00,-0.06,0.00,2.14,0.65,51.13
25.513483,0.0024,0.0625,1.0020,0.00,0.00,0.00,2.14,0.65,51.13
25.544569,0.0029,0.0625,1.0020,0.06,0.00,0.00,2.14,0.65,51.13
25.544569,0.0024,0.0630,1.0020,0.00,0.00,0.00,2.14,0.65,51.13
25.603959,0.0024,0.0620,1.0020,0.00,0.00,-0.06,2.14,0.65,51.13
25.603959,0.0020,0.0625,1.0015,0.06,0.00,0.00,2.14,0.65,51.13
25.633537,0.0029,0.0630,1.0010,0.00,0.00,0.00,2.14,0.65,51.13
25.633537,0.0020,0.0630,1.0020,0.06,0.00,-0.06,2.14,0.65,51.13
25.663494,0.0020,0.0625,1.0020,0.00,0.00,-0.06,2.14,0.65,51.13
25.663494,0.0020,0.0625,1.0010,0.00,0.00,-0.06,2.14,0.65,51.13
25.723263,0.0020,0.0630,1.0024,0.00,0.00,-0.06,2.14,0.65,51.14
25.723263,0.0020,0.0635,1.0020,0.00,0.00,-0.06,2.14,0.65,51.14
25.753344,0.0015,0.0620,1.0024,0.00,0.00,0.00,2.14,0.65,51.14
25.753344,0.0020,0.0625,1.0020,0.00,0.00,-0.06,2.14,0.65,51.14
25.783460,0.0015,0.0625,1.0020,0.00,0.00,0.00,2.14,0.65,51.14
25.783460,0.0024,0.0635,1.0024,0.00,0.00,-0.12,2.14,0.65,51.14
25.843569,0.0020,0.0635,1.0015,0.00,0.00,0.00,2.14,0.65,51.14
25.843569,0.0020,0.0640,1.0015,0.00,0.00,0.00,2.14,0.65,51.14
25.873360,0.0015,0.0625,1.0024,0.00,0.00,0.00,2.14,0.65,51.14
25.873360,0.0015,0.0620,1.0015,0.00,0.00,-0.06,2.14,0.65,51.14
25.903317,0.0024,0.0625,1.0005,0.06,0.00,0.00,2.14,0.65,51.14
25.903317,0.0015,0.0625,1.0020,0.00,0.00,-0.06,2.14,0.65,51.14
25.963367,0.0020,0.0625,1.0024,0.00,0.00,-0.06,2.14,0.65,51.14
25.963367,0.0024,0.0625,1.0010,0.00,0.00,-0.06,2.14,0.65,51.14
25.993491,0.0020,0.0640,1.0015,0.06,0.00,0.00,2.14,0.65,51.14
25.993491,0.0020,0.0635,1.0015,0.00,0.00,0.00,2.14,0.65,51.14
26.053425,0.0024,0.0630,1.0015,0.00,0.00,-0.06,2.14,0.65,51.14
26.053425,0.0020,0.0630,1.0020,0.06,0.00,-0.06,2.14,0.65,51.14
26.083524,0.0020,0.0630,1.0020,0.00,-0.06,0.00,2.14,0.65,51.14
26.083524,0.0020,0.0630,1.0024,0.00,0.00,0.00,2.14,0.65,51.15
26.113466,0.0020,0.0625,1.0020,0.00,0.00,0.00,2.14,0.65,51.15
26.113466,0.0020,0.0630,1.0029,0.00,0.00,0.00,2.14,0.65,51.15
26.173497,0.0024,0.0625,1.0015,0.00,0.00,-0.06,2.14,0.65,51.15
26.173497,0.0024,0.0635,1.0020,0.00,0.00,0.00,2.14,0.65,51.15
26.203462,0.0020,0.0630,1.0020,0.00,0.00,0.00,2.14,0.65,51.15
26.203462,0.0015,0.0620,1.0024,0.06,0.00,-0.06,2.14,0.65,51.15
26.233521,0.0020,0.0635,1.0024,0.00,0.00,-0.06,2.14,0.65,51.15
26.233521,0.0020,0.0630,1.0020,0.00,0.00,0.00,2.14,0.65,51.15
26.293604,0.0029,0.0630,1.0015,0.00,0.00,0.00,2.14,0.65,51.15
26.293604,0.0020,0.0635,1.0015,0.00,0.00,0.00,2.14,0.65,51.15
26.323530,0.0020,0.0635,1.0024,0.00,0.00,0.00,2.14,0.65,51.15
26.323530,0.0020,0.0630,1.0020,0.00,0.00,-0.06,2.14,0.65,51.15
26.353514,0.0020,0.0640,1.0015,0.00,0.00,0.00,2.14,0.65,51.15
26.353514,0.0015,0.0640,1.0024,0.00,0.00,-0.06,2.14,0.65,51.15
26.413531,0.0024,0.0640,1.0024,0.06,0.00,0.00,2.14,0.65,51.15
26.413531,0.0010,0.0630,1.0020,0.00,0.00,0.00,2.14,0.65,51.15
26.443776,0.0020,0.0630,1.0010,0.00,0.00,-0.06,2.14,0.65,51.15
26.443776,0.0020,0.0625,1.0010,0.00,0.00,0.00,2.14,0.65,51.15
26.474796,0.0015,0.0640,1.0020,0.00,0.00,-0.06,2.14,0.65,51.16
26.474796,0.0015,0.0630,1.0015,0.00,0.00,0.00,2.14,0.65,51.16
26.533376,0.0020,0.0635,1.0024,0.00,0.00,0.00,2.14,0.65,51.16
26.533376,0.0024,0.0630,1.0015,0.00,0.00,-0.06,2.14,0.65,51.16
26.563513,0.0024,0.0635,1.0024,0.00,0.00,0.00,2.14,0.65,51.16
26.563513,0.0024,0.0625,1.0020,0.00,0.00,-0.06,2.14,0.65,51.16
26.594288,0.0015,0.0630,1.0010,0.00,0.00,0.00,2.14,0.65,51.16
26.594288,0.0020,0.0625,1.0015,0.00,0.00,-0.06,2.14,0.65,51.16
26.654356,0.0015,0.0625,1.0015,0.00,0.00,-0.06,2.14,0.65,51.16
26.654356,0.0020,0.0615,1.0024,0.00,0.00,0.00,2.14,0.65,51.16
26.683488,0.0024,0.0630,1.0020,0.06,0.00,0.00,2.14,0.65,51.16
26.683488,0.0029,0.0630,1.0029,0.06,0.06,-0.06,2.14,0.65,51.16
26.716235,0.0024,0.0625,1.0029,0.00,0.00,0.00,2.14,0.65,51.16
26.716235,0.0024,0.0630,1.0020,0.00,0.00,0.00,2.14,0.65,51.16
26.774457,0.0015,0.0620,1.0010,0.06,0.00,0.00,2.14,0.65,51.16
26.774457,0.0024,0.0630,1.0020,0.00,0.00,-0.06,2.14,0.65,51.16
26.804271,0.0024,0.0620,1.0010,0.00,0.00,0.00,2.14,0.65,51.16
26.804271,0.0015,0.0635,1.0015,0.00,0.00,0.00,2.14,0.65,51.16
26.833575,0.0020,0.0630,1.0015,0.00,0.00,0.00,2.14,0.65,51.16
26.833575,0.0015,0.0620,1.0015,0.00,0.00,-0.06,2.14,0.65,51.16
26.893539,0.0020,0.0620,1.0015,0.00,0.00,0.00,2.14,0.65,51.17
26.893539,0.0015,0.0630,1.0020,0.00,0.00,-0.06,2.14,0.65,51.17
26.924315,0.0029,0.0625,1.0010,0.06,0.00,-0.06,2.14,0.65,51.17
26.924315,0.0020,0.0625,1.0020,0.00,0.00,-0.06,2.14,0.65,51.17
26.953527,0.0029,0.0625,1.0020,0.06,0.00,-0.06,2.14,0.65,51.17
26.953527,0.0020,0.0630,1.0015,0.00,0.00,-0.06,2.14,0.65,51.17
27.013533,0.0015,0.0630,1.0010,0.00,0.00,-0.06,2.14,0.65,51.17
27.013533,0.0024,0.0630,1.0015,0.00,0.00,0.00,2.14,0.65,51.17
27.044181,0.0015,0.0625,1.0024,0.00,0.00,-0.06,2.14,0.65,51.17
27.044181,0.0020,0.0625,1.0015,0.00,0.00,-0.06,2.14,0.65,51.17
27.074297,0.0020,0.0635,1.0020,0.00,0.00,-0.06,2.14,0.65,51.17
27.074297,0.0020,0.0630,1.0015,0.00,0.00,-0.06,2.14,0.65,51.17
27.134403,0.0020,0.0625,1.0015,0.06,0.00,0.00,2.14,0.65,51.17
27.134403,0.0024,0.0630,1.0015,0.00,0.00,0.00,2.14,0.65,51.17
27.163500,0.0015,0.0635,1.0020,0.00,0.00,-0.06,2.14,0.65,51.17
27.163500,0.0015,0.0630,1.0015,0.00,0.06,-0.06,2.14,0.65,51.17
27.194283,0.0020,0.0635,1.0015,0.00,0.00,-0.06,2.14,0.65,51.17
27.194283,0.0024,0.0620,1.0010,0.00,0.00,0.00,2.14,0.65,51.17
27.254422,0.0020,0.0630,1.0020,0.00,0.00,0.00,2.14,0.65,51.17
27.254422,0.0015,0.0640,1.0024,0.00,0.00,-0.06,2.14,0.65,51.17
27.283449,0.0020,0.0630,1.0010,0.06,0.00,0.00,2.14,0.65,51.17
27.283449,0.0024,0.0625,1.0024,0.00,0.00,0.00,2.14,0.65,51.18
27.314292,0.0015,0.0630,1.0024,0.00,0.00,0.00,2.14,0.65,51.18
27.314292,0.0010,0.0625,1.0015,0.00,0.00,-0.06,2.14,0.65,51.18
27.374403,0.0015,0.0635,1.0015,0.00,0.00,-0.06,2.14,0.65,51.18
27.374403,0.0010,0.0625,1.0010,0.00,0.00,0.00,2.14,0.65,51.18
27.404453,0.0024,0.0630,1.0029,0.06,0.00,0.00,2.14,0.65,51.18
27.404453,0.0024,0.0635,1.0015,0.00,0.00,0.00,2.14,0.65,51.18
27.464294,0.0015,0.0630,1.0024,0.00,0.00,0.00,2.14,0.65,51.18
27.464294,0.0015,0.0630,1.0015,0.00,0.00,0.00,2.14,0.65,51.18
27.493422,0.0020,0.0640,1.0010,0.00,0.00,-0.06,2.14,0.65,51.18
27.493422,0.0020,0.0635,1.0015,0.00,0.00,0.00,2.14,0.65,51.19
27.524278,0.0015,0.0630,1.0010,0.00,0.00,-0.06,2.14,0.65,51.19
27.524278,0.0020,0.0620,1.0010,0.00,0.00,0.00,2.14,0.65,51.19
27.583528,0.0024,0.0635,1.0015,0.00,0.00,-0.06,2.14,0.65,51.19
27.583528,0.0015,0.0630,1.0020,0.00,0.00,0.00,2.14,0.65,51.19
27.614314,0.0020,0.0635,1.0015,0.00,0.00,0.00,2.14,0.65,51.19
27.614314,0.0029,0.0630,1.0020,0.00,0.00,-0.06,2.14,0.65,51.19
27.643833,0.0020,0.0630,1.0020,0.00,0.00,0.00,2.14,0.65,51.19
27.643833,0.0029,0.0635,1.0029,0.00,0.00,0.00,2.14,0.65,51.19
27.704291,0.0020,0.0625,1.0024,0.00,0.00,-0.06,2.14,0.65,51.19
27.704291,0.0020,0.0625,1.0024,0.00,0.00,-0.06,2.14,0.65,51.19
27.734065,0.0020,0.0625,1.0020,0.00,0.00,-0.06,2.14,0.65,51.19
27.734065,0.0020,0.0635,1.0020,0.00,0.00,0.00,2.14,0.65,51.19
27.763962,0.0015,0.0625,1.0015,0.00,0.00,0.00,2.14,0.65,51.19
27.763962,0.0020,0.0625,1.0010,0.00,0.00,-0.06,2.14,0.65,51.19
27.823696,0.0020,0.0630,1.0015,0.00,0.00,0.00,2.14,0.65,51.19
27.823696,0.0020,0.0635,1.0010,0.00,0.00,0.00,2.14,0.65,51.19
27.854247,0.0015,0.0635,1.0010,0.00,0.00,-0.06,2.14,0.65,51.19
27.854247,0.0015,0.0630,1.0005,0.00,0.00,-0.06,2.14,0.65,51.19
27.883551,0.0024,0.0635,1.0020,0.00,0.00,-0.06,2.14,0.65,51.19
27.883551,0.0020,0.0630,1.0015,0.00,0.00,0.00,2.14,0.65,51.19
27.944600,0.0024,0.0630,1.0010,0.00,0.00,-0.06,2.14,0.65,51.19
27.944600,0.0020,0.0625,1.0010,0.00,0.00,-0.06,2.14,0.65,51.20
27.973559,0.0024,0.0630,1.0005,0.00,0.00,-0.06,2.14,0.65,51.20
27.973559,0.0015,0.0635,1.0000,0.00,0.00,0.00,2.14,0.65,51.20
28.004358,0.0020,0.0635,1.0005,0.00,0.00,-0.06,2.14,0.65,51.20
28.004358,0.0029,0.0635,1.0005,0.00,0.00,-0.06,2.14,0.65,51.20
28.064361,0.0029,0.0630,1.0010,0.00,0.00,-0.06,2.14,0.65,51.20
28.064361,0.0024,0.0630,1.0020,0.00,0.00,-0.06,2.14,0.65,51.20
28.093576,0.0010,0.0630,1.0020,0.00,0.00,0.00,2.14,0.65,51.20
28.093576,0.0020,0.0630,1.0010,0.00,0.00,-0.06,2.14,0.65,51.20
28.123550,0.0029,0.0630,1.0015,0.00,0.00,-0.06,2.14,0.65,51.20
28.123550,0.0020,0.0625,1.0015,0.00,0.00,0.00,2.14,0.65,51.20
28.184453,0.0024,0.0635,1.0005,0.00,0.00,-0.06,2.14,0.65,51.20
28.184453,0.0029,0.0625,1.0015,0.00,0.00,0.00,2.14,0.65,51.20
28.244512,0.0020,0.0625,1.0010,0.00,0.00,-0.06,2.14,0.65,51.20
28.244512,0.0020,0.0640,1.0015,0.00,0.00,0.00,2.14,0.65,51.20
28.248769,0.0015,0.0630,1.0010,0.00,0.00,0.00,2.14,0.65,51.20
28.248769,0.0020,0.0625,1.0020,0.00,0.00,-0.06,2.14,0.65,51.20
28.304399,0.0015,0.0630,1.0010,0.00,0.00,0.00,2.14,0.65,51.20
28.304399,0.0020,0.0630,1.0015,0.00,0.00,-0.06,2.14,0.65,51.20
28.333614,0.0020,0.0630,1.0015,0.00,0.00,0.00,2.14,0.65,51.20
28.333614,0.0024,0.0630,1.0000,0.00,0.00,0.00,2.14,0.65,51.20
28.364210,0.0029,0.0625,1.0010,0.00,0.00,-0.06,2.14,0.65,51.20
28.364210,0.0015,0.0620,1.0005,0.06,0.00,0.00,2.14,0.65,51.20
28.424395,0.0020,0.0630,0.9995,0.00,0.00,0.00,2.14,0.65,51.21
28.424395,0.0024,0.0630,1.0005,0.00,0.00,0.00,2.14,0.65,51.21
28.453579,0.0024,0.0630,1.0010,0.00,0.00,0.00,2.14,0.65,51.21
28.453579,0.0015,0.0625,1.0020,0.06,0.00,0.00,2.14,0.65,51.21
28.484332,0.0020,0.0635,1.0020,0.00,0.00,-0.06,2.14,0.65,51.21
28.484332,0.0020,0.0630,1.0015,0.00,0.06,0.00,2.14,0.65,51.21
28.547164,0.0024,0.0625,1.0020,0.00,0.00,-0.06,2.14,0.65,51.21
28.547164,0.0020,0.0625,1.0010,0.00,0.00,-0.06,2.14,0.65,51.21
28.576249,0.0024,0.0625,1.0015,0.00,0.00,-0.06,2.14,0.65,51.21
28.576249,0.0024,0.0635,1.0015,0.00,0.00,-0.06,2.14,0.65,51.21
28.604486,0.0029,0.0635,1.0010,0.00,0.00,-0.06,2.14,0.65,51.21
28.604486,0.0024,0.0620,1.0015,0.00,0.06,0.00,2.14,0.65,51.21
28.664321,0.0029,0.0630,1.0015,0.00,0.00,0.00,2.14,0.65,51.21
28.664321,0.0020,0.0625,1.0005,0.00,0.00,-0.06,2.14,0.65,51.21
28.693573,0.0020,0.0630,1.0015,0.00,0.00,0.00,2.14,0.65,51.21
28.693573,0.0029,0.0625,1.0015,0.00,0.00,0.00,2.14,0.65,51.21
28.723594,0.0020,0.0630,1.0020,0.00,0.00,0.00,2.14,0.65,51.21
28.723594,0.0015,0.0630,1.0024,0.00,0.00,0.00,2.14,0.65,51.21
28.783641,0.0029,0.0630,1.0020,0.00,0.00,-0.06,2.14,0.65,51.21
28.783641,0.0015,0.0625,1.0015,0.00,0.00,0.00,2.14,0.65,51.21
28.814345,0.0024,0.0630,1.0015,0.00,0.00,0.00,2.14,0.65,51.21
28.814345,0.0024,0.0630,1.0024,0.00,0.00,-0.06,2.14,0.65,51.21
28.874365,0.0015,0.0625,1.0010,0.00,0.00,0.00,2.14,0.65,51.21
28.874365,0.0020,0.0625,1.0010,0.00,0.00,-0.06,2.14,0.65,51.21
28.903554,0.0029,0.0635,1.0015,0.00,0.00,0.00,2.14,0.65,51.22
28.903554,0.0020,0.0630,1.0020,0.00,0.00,-0.06,2.14,0.65,51.22
28.933597,0.0029,0.0630,1.0015,0.00,0.00,0.00,2.14,0.65,51.22
28.933597,0.0024,0.0620,1.0010,0.00,0.00,0.00,2.14,0.65,51.22
28.994352,0.0029,0.0630,1.0020,0.00,0.00,-0.06,2.14,0.64,51.22
28.994352,0.0010,0.0630,1.0015,0.00,0.00,-0.06,2.14,0.64,51.22
29.023607,0.0020,0.0625,1.0024,0.00,0.00,-0.06,2.14,0.64,51.22
29.023607,0.0024,0.0630,1.0024,0.00,0.00,-0.06,2.14,0.64,51.22
29.054363,0.0024,0.0630,1.0029,0.06,0.00,0.00,2.14,0.64,51.22
29.054363,0.0029,0.0630,1.0020,0.00,0.00,-0.06,2.14,0.64,51.22
29.114278,0.0024,0.0630,1.0020,0.00,0.00,-0.06,2.14,0.64,51.22
29.114278,0.0020,0.0630,1.0020,0.00,0.00,-0.06,2.14,0.64,51.22
29.146653,0.0024,0.0630,1.0015,0.06,0.00,0.00,2.14,0.64,51.22
29.146653,0.0020,0.0630,1.0020,0.00,0.00,0.00,2.14,0.64,51.22
29.176264,0.0015,0.0630,1.0010,0.00,0.00,0.00,2.14,0.64,51.22
29.176264,0.0020,0.0630,1.0010,0.00,0.00,0.00,2.14,0.64,51.22
29.233584,0.0015,0.0630,1.0010,0.00,0.00,0.00,2.14,0.64,51.22
29.233584,0.0015,0.0625,1.0010,0.00,0.00,-0.06,2.14,0.64,51.22
29.263595,0.0015,0.0625,1.0020,0.00,0.00,0.00,2.14,0.64,51.22
29.263595,0.0020,0.0630,1.0015,0.06,0.00,0.00,2.14,0.64,51.22
29.293613,0.0010,0.0630,1.0015,0.00,0.00,-0.06,2.14,0.64,51.22
29.293613,0.0015,0.0640,1.0020,0.00,0.00,-0.06,2.14,0.65,51.22
29.354576,0.0015,0.0635,1.0015,0.00,0.00,-0.06,2.14,0.65,51.22
29.354576,0.0015,0.0625,1.0020,0.00,0.00,0.00,2.14,0.65,51.22
29.383530,0.0024,0.0635,1.0015,0.00,0.00,0.00,2.14,0.65,51.23
29.383530,0.0020,0.0630,1.0015,0.00,0.00,0.00,2.14,0.65,51.23
29.414710,0.0015,0.0635,1.0020,0.00,0.00,-0.06,2.14,0.65,51.23
29.414710,0.0020,0.0630,1.0015,0.00,0.00,0.00,2.14,0.65,51.23
29.476316,0.0020,0.0635,1.0015,0.00,0.00,-0.06,2.14,0.65,51.23
29.476316,0.0020,0.0630,1.0020,0.00,0.00,0.00,2.14,0.65,51.23
29.504140,0.0029,0.0625,1.0010,0.06,0.00,0.00,2.14,0.65,51.23
29.504140,0.0029,0.0630,1.0010,0.00,0.00,0.00,2.14,0.65,51.23
29.534434,0.0015,0.0625,1.0015,0.00,0.00,-0.12,2.14,0.65,51.23
29.534434,0.0024,0.0630,1.0020,0.00,0.00,0.00,2.14,0.65,51.23
29.594363,0.0015,0.0620,1.0010,0.00,0.00,-0.06,2.14,0.65,51.23
29.594363,0.0020,0.0625,1.0020,0.00,0.00,-0.06,2.14,0.65,51.23
29.623646,0.0015,0.0635,1.0010,0.00,0.00,0.00,2.14,0.65,51.23
29.623646,0.0015,0.0625,1.0020,0.00,0.00,-0.06,2.14,0.65,51.23
29.653553,0.0015,0.0630,1.0024,0.00,0.00,-0.06,2.14,0.65,51.23
29.653553,0.0020,0.0625,1.0024,0.00,0.00,-0.06,2.14,0.65,51.23
29.714333,0.0020,0.0630,1.0024,0.00,0.00,0.00,2.14,0.65,51.23
29.714333,0.0024,0.0635,1.0024,0.00,0.00,0.00,2.14,0.65,51.23
29.743838,0.0024,0.0620,1.0020,0.00,0.00,0.00,2.14,0.65,51.23
29.743838,0.0015,0.0630,1.0029,0.00,0.00,-0.06,2.14,0.65,51.23
29.774350,0.0024,0.0625,1.0020,0.00,0.00,0.00,2.14,0.65,51.23
29.774350,0.0024,0.0635,1.0024,0.00,0.06,0.00,2.14,0.65,51.23
29.834303,0.0024,0.0630,1.0015,0.00,0.00,-0.06,2.14,0.65,51.23
29.834303,0.0020,0.0640,1.0015,0.00,0.00,-0.06,2.14,0.65,51.23
29.863572,0.0024,0.0630,1.0020,0.00,0.00,0.00,2.14,0.65,51.23
29.863572,0.0015,0.0645,1.0020,0.00,0.00,-0.06,2.14,0.65,51.23
29.894338,0.0029,0.0630,1.0020,0.00,0.00,0.00,2.14,0.65,51.24
29.894338,0.0029,0.0630,1.0020,0.00,0.00,-0.06,2.14,0.65,51.24
29.953589,0.0020,0.0635,1.0020,0.00,0.00,0.00,2.14,0.65,51.24
29.953589,0.0024,0.0635,1.0015,0.00,0.00,0.00,2.14,0.65,51.24
29.984336,0.0020,0.0625,1.0020,0.00,0.00,-0.06,2.14,0.65,51.24
29.984336,0.0015,0.0630,1.0015,0.00,0.00,0.00,2.14,0.65,51.24
30.013577,0.0024,0.0630,1.0015,0.00,0.00,-0.06,2.14,0.65,51.24
30.013577,0.0020,0.0630,1.0015,0.00,0.00,0.00,2.14,0.65,51.24
30.074410,0.0015,0.0630,1.0010,0.00,0.00,0.00,2.14,0.65,51.24
30.074410,0.0015,0.0630,1.0015,0.00,0.00,-0.06,2.14,0.65,51.24
30.103498,0.0020,0.0620,1.0020,0.00,0.00,-0.06,2.14,0.65,51.24
30.103498,0.0020,0.0635,1.0020,0.00,0.00,-0.06,2.14,0.65,51.24
30.134335,0.0015,0.0630,1.0015,0.06,0.00,-0.06,2.14,0.65,51.24
30.134335,0.0024,0.0635,1.0010,0.06,0.06,0.00,2.14,0.65,51.25
30.193681,0.0024,0.0625,1.0015,0.00,0.00,0.00,2.14,0.65,51.25
30.193681,0.0024,0.0625,1.0015,0.00,0.00,-0.06,2.14,0.65,51.25
30.223624,0.0020,0.0630,1.0020,0.00,0.00,-0.06,2.14,0.65,51.25
30.223624,0.0024,0.0640,1.0020,0.00,0.00,0.00,2.14,0.65,51.25
30.284387,0.0020,0.0635,1.0024,0.00,0.00,-0.06,2.14,0.65,51.25
30.284387,0.0020,0.0630,1.0024,0.00,0.00,-0.06,2.14,0.65,51.25
30.313589,0.0029,0.0630,1.0010,0.00,0.00,-0.06,2.14,0.65,51.25
30.313589,0.0020,0.0630,1.0015,0.06,0.00,-0.06,2.14,0.65,51.25
30.344691,0.0020,0.0630,1.0020,0.00,0.00,0.00,2.14,0.65,51.25
30.344691,0.0015,0.0630,1.0020,0.00,0.00,0.00,2.14,0.65,51.25
30.404467,0.0010,0.0625,1.0015,0.00,0.00,-0.06,2.14,0.65,51.25
30.404467,0.0020,0.0630,1.0024,0.00,0.00,-0.06,2.14,0.65,51.25
30.436315,0.0029,0.0630,1.0020,0.00,0.00,0.00,2.14,0.65,51.25
30.436315,0.0024,0.0630,1.0015,0.00,0.00,0.00,2.14,0.65,51.25
30.464706,0.0015,0.0635,1.0015,0.06,0.00,0.00,2.14,0.65,51.25
30.464706,0.0015,0.0635,1.0020,0.00,0.00,0.00,2.14,0.65,51.25
30.524339,0.0020,0.0630,1.0020,0.00,0.00,0.00,2.14,0.65,51.25
30.524339,0.0024,0.0645,1.0024,0.00,0.06,0.00,2.14,0.65,51.25
30.553548,0.0020,0.0630,1.0020,0.00,0.00,-0.06,2.14,0.65,51.25
30.553548,0.0020,0.0630,1.0020,0.00,0.00,-0.06,2.14,0.65,51.25
30.584310,0.0020,0.0635,1.0010,0.00,0.00,0.00,2.14,0.65,51.25
30.584310,0.0024,0.0630,1.0015,0.06,0.00,-0.06,2.14,0.65,51.25
30.644608,0.0024,0.0625,1.0010,0.00,0.00,0.00,2.14,0.65,51.25
30.644608,0.0020,0.0630,1.0010,0.06,0.00,0.00,2.14,0.65,51.25
30.673549,0.0024,0.0630,1.0020,0.00,0.00,0.00,2.14,0.65,51.25
30.673549,0.0015,0.0625,1.0015,0.00,0.00,-0.06,2.14,0.65,51.25
30.703873,0.0020,0.0630,1.0020,0.00,0.00,0.00,2.14,0.65,51.26
30.703873,0.0020,0.0630,1.0020,0.00,0.00,0.00,2.14,0.65,51.26
30.764319,0.0024,0.0640,1.0020,0.00,0.00,-0.06,2.14,0.65,51.26
30.764319,0.0024,0.0635,1.0015,0.00,0.00,-0.06,2.14,0.65,51.26
30.794327,0.0005,0.0620,1.0015,0.00,0.00,0.00,2.14,0.65,51.26
30.794327,0.0020,0.0625,1.0024,0.00,0.00,0.00,2.14,0.65,51.26
30.823542,0.0024,0.0635,1.0024,0.00,0.00,0.00,2.14,0.65,51.26
30.823542,0.0015,0.0630,1.0020,0.00,0.00,-0.06,2.14,0.65,51.26
30.883514,0.0015,0.0640,1.0015,0.00,0.00,0.00,2.14,0.65,51.26
30.883514,0.0015,0.0630,1.0020,0.00,0.00,0.00,2.14,0.65,51.26
30.914348,0.0020,0.0625,1.0015,0.00,0.00,-0.06,2.14,0.65,51.26
30.914348,0.0015,0.0630,1.0010,0.00,0.00,0.00,2.14,0.65,51.26
30.945031,0.0015,0.0630,1.0024,0.00,0.00,-0.06,2.14,0.65,51.26
30.945031,0.0020,0.0630,1.0029,0.00,0.00,-0.06,2.14,0.65,51.26
31.004354,0.0020,0.0625,1.0029,0.00,0.00,0.00,2.14,0.65,51.26
31.004354,0.0020,0.0625,1.0020,0.00,0.00,-0.06,2.14,0.65,51.26
31.033569,0.0020,0.0630,1.0029,0.00,0.00,0.00,2.14,0.65,51.26
31.033569,0.0010,0.0630,1.0020,0.00,0.00,0.00,2.14,0.65,51.26
31.064298,0.0020,0.0630,1.0020,0.00,0.00,0.00,2.14,0.65,51.26
31.064298,0.0020,0.0630,1.0015,0.06,0.00,0.00,2.14,0.65,51.26
31.124296,0.0024,0.0630,1.0020,0.00,0.00,0.00,2.14,0.65,51.26
31.124296,0.0020,0.0635,1.0024,0.00,0.06,-0.06,2.14,0.65,51.26
31.153484,0.0015,0.0625,1.0029,0.00,0.00,0.00,2.14,0.65,51.26
31.153484,0.0020,0.0625,1.0020,0.00,0.00,0.00,2.14,0.65,51.26
31.183357,0.0024,0.0635,1.0024,0.00,0.00,-0.06,2.14,0.65,51.26
31.183357,0.0015,0.0625,1.0010,0.00,0.06,0.00,2.14,0.65,51.26
31.244876,0.0024,0.0630,1.0020,0.00,0.00,0.00,2.14,0.65,51.26
31.244876,0.0015,0.0635,1.0020,0.00,0.00,-0.06,2.14,0.65,51.26
31.276055,0.0024,0.0630,1.0015,0.00,0.00,-0.06,2.14,0.65,51.26
31.276055,0.0024,0.0640,1.0020,0.06,0.00,0.00,2.14,0.65,51.27
31.307573,0.0024,0.0635,1.0020,0.00,0.00,0.00,2.14,0.65,51.27
31.307573,0.0024,0.0630,1.0020,0.00,0.00,-0.06,2.14,0.65,51.27
31.364295,0.0024,0.0630,1.0015,0.00,0.00,0.00,2.14,0.65,51.27
31.364295,0.0020,0.0625,1.0015,0.00,0.00,0.00,2.14,0.65,51.27
31.393571,0.0015,0.0630,1.0015,0.00,0.00,-0.06,2.14,0.65,51.27
31.393571,0.0020,0.0625,1.0024,0.00,0.00,-0.12,2.14,0.65,51.27
31.423624,0.0024,0.0630,1.0020,0.06,0.00,0.00,2.14,0.65,51.27
31.423624,0.0024,0.0630,1.0005,0.00,0.00,-0.06,2.14,0.65,51.27
31.484347,0.0015,0.0630,1.0020,0.00,0.00,-0.06,2.14,0.65,51.27
31.484347,0.0024,0.0635,1.0029,0.00,0.00,-0.06,2.14,0.65,51.27
31.514443,0.0020,0.0625,1.0020,0.00,0.00,-0.06,2.14,0.65,51.27
31.514443,0.0029,0.0625,1.0015,0.00,0.00,0.00,2.14,0.65,51.27
31.544944,0.0015,0.0625,1.0015,0.00,0.00,-0.06,2.14,0.65,51.27
31.544944,0.0020,0.0625,1.0015,0.06,0.00,0.00,2.14,0.65,51.27
31.604338,0.0020,0.0635,1.0020,0.00,0.00,0.00,2.14,0.65,51.27
31.604338,0.0020,0.0630,1.0015,0.00,0.00,-0.06,2.14,0.65,51.27
31.633524,0.0024,0.0635,1.0024,0.00,0.00,0.00,2.14,0.65,51.27
31.633524,0.0024,0.0635,1.0020,0.00,0.00,-0.06,2.14,0.65,51.27
31.693583,0.0029,0.0630,1.0020,0.00,0.00,-0.06,2.14,0.65,51.27
31.693583,0.0020,0.0625,1.0029,0.00,0.00,-0.06,2.14,0.65,51.27
31.724298,0.0024,0.0625,1.0024,0.00,0.00,-0.06,2.14,0.65,51.27
31.724298,0.0024,0.0630,1.0020,0.00,0.00,-0.06,2.14,0.65,51.27
31.753570,0.0020,0.0630,1.0020,0.00,0.00,0.00,2.14,0.65,51.27
31.753570,0.0015,0.0630,1.0020,0.06,0.00,0.00,2.14,0.65,51.27
31.813579,0.0020,0.0630,1.0010,0.00,0.00,0.00,2.14,0.65,51.27
31.813579,0.0020,0.0630,1.0024,0.00,0.00,0.00,2.14,0.65,51.27
31.845091,0.0024,0.0635,1.0020,0.00,0.00,-0.06,2.14,0.65,51.27
31.845091,0.0024,0.0625,1.0015,0.00,0.00,-0.06,2.14,0.65,51.27
31.873985,0.0024,0.0625,1.0024,0.00,0.00,0.00,2.14,0.65,51.27
31.873985,0.0029,0.0630,1.0029,0.06,0.00,-0.06,2.14,0.65,51.28
31.934302,0.0020,0.0630,1.0020,0.00,0.00,0.00,2.14,0.65,51.28
31.934302,0.0024,0.0630,1.0020,0.00,-0.06,-0.06,2.14,0.65,51.28
31.963510,0.0024,0.0630,1.0024,0.00,0.00,0.00,2.14,0.65,51.28
31.963510,0.0020,0.0630,1.0020,0.00,0.00,-0.06,2.14,0.65,51.28
31.993522,0.0024,0.0635,1.0020,0.06,0.00,0.00,2.14,0.65,51.28
31.993522,0.0024,0.0635,1.0020,0.00,0.00,-0.06,2.14,0.65,51.28
32.054340,0.0020,0.0635,1.0024,0.00,0.00,-0.06,2.14,0.65,51.28
32.054340,0.0024,0.0635,1.0010,0.00,0.00,0.00,2.14,0.65,51.28
32.083483,0.0020,0.0625,1.0029,-0.06,0.00,0.00,2.14,0.65,51.28
32.083483,0.0029,0.0625,1.0020,0.00,0.00,-0.06,2.14,0.64,51.28
32.113531,0.0024,0.0640,1.0029,0.00,0.00,0.00,2.14,0.64,51.28
32.113531,0.0024,0.0625,1.0020,0.00,0.00,-0.06,2.14,0.64,51.28
32.174335,0.0020,0.0620,1.0024,0.00,0.00,0.00,2.14,0.64,51.28
32.174335,0.0015,0.0625,1.0024,0.00,0.00,-0.06,2.14,0.64,51.28
32.203561,0.0015,0.0635,1.0020,0.00,0.00,-0.06,2.14,0.64,51.28
32.203561,0.0010,0.0625,1.0010,0.00,0.00,0.00,2.14,0.64,51.28
32.233532,0.0024,0.0630,1.0010,0.00,0.00,0.00,2.14,0.64,51.28
32.233532,0.0020,0.0620,1.0020,0.00,0.00,0.00,2.14,0.64,51.28
32.294342,0.0020,0.0625,1.0000,0.00,0.00,-0.06,2.14,0.64,51.28
32.294342,0.0015,0.0620,1.0010,0.00,0.00,0.00,2.14,0.64,51.28
32.324304,0.0020,0.0630,1.0015,0.06,0.00,-0.06,2.14,0.64,51.28
32.324304,0.0020,0.0625,1.0010,0.00,0.00,-0.06,2.14,0.64,51.28
32.353522,0.0024,0.0630,1.0020,0.00,0.00,-0.06,2.14,0.64,51.28
32.353522,0.0024,0.0635,1.0020,0.00,0.00,0.00,2.14,0.64,51.28
32.413516,0.0024,0.0630,1.0024,0.00,0.00,-0.06,2.14,0.64,51.28
32.413516,0.0020,0.0635,1.0024,0.00,0.00,0.00,2.14,0.64,51.28
32.444542,0.0024,0.0635,1.0020,0.00,0.00,0.00,2.14,0.64,51.28
32.444542,0.0015,0.0630,1.0015,0.00,0.00,-0.06,2.14,0.64,51.28
32.476062,0.0024,0.0630,1.0015,0.00,0.00,-0.06,2.14,0.64,51.28
32.476062,0.0015,0.0625,1.0015,0.00,0.00,-0.06,2.14,0.64,51.28
32.533563,0.0020,0.0620,1.0015,0.00,0.00,0.00,2.14,0.64,51.28
32.533563,0.0020,0.0630,1.0015,0.06,0.00,0.00,2.14,0.65,51.29
32.564297,0.0020,0.0625,1.0015,0.00,0.00,-0.06,2.14,0.65,51.29
32.564297,0.0024,0.0640,1.0020,0.00,0.00,-0.06,2.14,0.65,51.29
32.593496,0.0020,0.0635,1.0015,0.00,0.00,-0.06,2.14,0.65,51.29
32.593496,0.0020,0.0630,1.0015,0.00,0.00,-0.06,2.14,0.65,51.29
32.654305,0.0020,0.0630,1.0010,0.00,0.00,-0.06,2.14,0.65,51.29
32.654305,0.0024,0.0630,1.0010,0.00,0.00,0.00,2.14,0.65,51.29
32.683589,0.0024,0.0630,1.0005,0.00,0.00,-0.06,2.14,0.65,51.29
32.683589,0.0020,0.0630,1.0010,0.00,0.00,-0.06,2.14,0.64,51.29
32.714309,0.0015,0.0625,1.0010,0.00,0.00,-0.06,2.14,0.64,51.29
32.714309,0.0024,0.0620,1.0015,0.00,0.00,-0.12,2.14,0.64,51.29
32.774338,0.0015,0.0630,1.0015,0.06,0.00,-0.06,2.14,0.64,51.29
32.774338,0.0024,0.0635,1.0015,0.00,0.00,-0.06,2.14,0.65,51.29
32.803538,0.0015,0.0640,1.0010,0.00,0.00,0.00,2.14,0.65,51.29
32.803538,0.0015,0.0635,1.0005,0.06,0.00,-0.06,2.14,0.65,51.29
32.834324,0.0020,0.0640,1.0010,0.00,0.00,0.00,2.14,0.65,51.29
32.834324,0.0024,0.0630,1.0005,0.00,0.00,0.00,2.14,0.65,51.30
32.894359,0.0024,0.0640,1.0015,0.00,0.00,0.00,2.14,0.65,51.30
32.894359,0.0015,0.0625,1.0024,0.00,0.06,0.00,2.14,0.65,51.30
32.954494,0.0015,0.0625,1.0015,0.00,0.00,0.00,2.14,0.65,51.30
32.954494,0.0024,0.0620,1.0020,0.00,0.00,0.00,2.14,0.65,51.30
32.956618,0.0024,0.0625,1.0015,0.00,0.00,-0.06,2.14,0.65,51.30
32.956618,0.0024,0.0630,1.0015,0.06,0.00,-0.06,2.14,0.65,51.30
33.013526,0.0020,0.0630,1.0015,0.00,0.00,0.00,2.14,0.65,51.30
33.013526,0.0024,0.0630,1.0010,0.00,0.00,0.00,2.14,0.65,51.30
33.043978,0.0020,0.0625,1.0010,0.00,0.00,-0.06,2.14,0.65,51.30
33.043978,0.0015,0.0635,1.0024,0.00,0.00,-0.06,2.14,0.65,51.30
33.105694,0.0024,0.0630,1.0015,0.12,0.00,-0.06,2.14,0.65,51.30
33.105694,0.0015,0.0635,1.0024,0.06,0.00,0.00,2.14,0.65,51.30
33.139270,0.0024,0.0630,1.0015,0.00,0.00,0.00,2.14,0.65,51.30
33.139270,0.0024,0.0635,1.0020,0.00,0.00,0.00,2.14,0.65,51.30
33.166560,0.0015,0.0625,1.0015,0.06,0.00,-0.06,2.14,0.65,51.30
33.166560,0.0024,0.0635,1.0020,0.00,0.00,-0.06,2.14,0.65,51.30
33.226863,0.0020,0.0630,1.0020,0.00,0.00,-0.06,2.14,0.65,51.30
33.226863,0.0024,0.0635,1.0020,0.00,0.00,-0.06,2.14,0.65,51.30
33.253932,0.0024,0.0635,1.0010,0.00,0.00,-0.06,2.14,0.65,51.30
33.253932,0.0020,0.0635,1.0010,0.00,0.00,-0.06,2.14,0.65,51.30
33.284689,0.0020,0.0635,1.0015,0.00,0.00,-0.06,2.14,0.65,51.30
33.284689,0.0024,0.0625,1.0010,0.00,0.00,0.00,2.14,0.65,51.30
33.360441,0.0024,0.0625,1.0005,0.00,0.00,-0.06,2.14,0.65,51.30
33.360441,0.0020,0.0625,1.0020,0.00,0.00,-0.06,2.14,0.65,51.30
33.376129,0.0024,0.0630,1.0020,0.00,0.00,-0.06,2.14,0.65,51.30
33.376129,0.0010,0.0635,1.0010,0.06,0.00,0.00,2.14,0.65,51.30
33.403571,0.0015,0.0630,1.0015,0.00,0.00,0.00,2.14,0.65,51.30
33.403571,0.0020,0.0625,1.0010,0.00,0.00,-0.06,2.14,0.65,51.30
33.464761,0.0029,0.0640,1.0020,0.00,0.00,0.00,2.14,0.65,51.30
33.464761,0.0029,0.0625,1.0024,0.00,0.00,-0.06,2.14,0.65,51.30
33.494447,0.0024,0.0630,1.0020,0.00,0.00,0.00,2.14,0.65,51.30
33.494447,0.0020,0.0635,1.0010,0.06,0.00,0.00,2.14,0.65,51.30
33.528427,0.0020,0.0630,1.0010,0.00,0.00,0.00,2.14,0.65,51.30
33.528427,0.0020,0.0625,1.0024,0.00,0.00,-0.06,2.14,0.65,51.31
33.583688,0.0015,0.0630,1.0010,0.00,0.00,-0.06,2.14,0.65,51.31
33.583688,0.0020,0.0625,1.0015,0.00,0.00,-0.06,2.14,0.65,51.31
33.613620,0.0020,0.0625,1.0024,0.00,0.00,0.00,2.14,0.65,51.31
33.613620,0.0020,0.0630,1.0020,0.00,0.00,-0.06,2.14,0.65,51.31
33.643572,0.0020,0.0630,1.0015,0.00,0.00,-0.06,2.14,0.65,51.31
33.643572,0.0015,0.0630,1.0024,0.00,-0.06,0.00,2.14,0.65,51.31
33.704430,0.0020,0.0630,1.0015,0.00,0.00,-0.06,2.14,0.65,51.31
33.704430,0.0024,0.0620,1.0010,0.00,0.00,0.00,2.14,0.65,51.31
33.733586,0.0020,0.0620,1.0015,0.00,0.00,-0.06,2.14,0.65,51.31
33.733586,0.0020,0.0625,1.0024,0.00,0.00,0.00,2.14,0.65,51.31
33.763876,0.0020,0.0630,1.0020,0.00,0.00,0.00,2.14,0.65,51.31
33.763876,0.0015,0.0625,1.0015,0.00,0.00,-0.06,2.14,0.65,51.31
33.824373,0.0024,0.0630,1.0020,0.00,0.00,-0.12,2.14,0.65,51.31
33.824373,0.0020,0.0630,1.0015,0.00,0.06,0.00,2.14,0.65,51.31
33.853582,0.0024,0.0630,1.0010,0.00,0.00,-0.06,2.14,0.65,51.31
33.853582,0.0024,0.0630,1.0020,0.00,0.00,-0.06,2.14,0.65,51.31
33.884313,0.0020,0.0625,1.0015,0.00,-0.06,0.00,2.14,0.65,51.31
33.884313,0.0010,0.0630,1.0020,0.00,0.00,-0.06,2.14,0.65,51.31
33.945492,0.0024,0.0625,1.0015,0.06,0.00,-0.06,2.14,0.65,51.31
33.945492,0.0029,0.0635,1.0015,0.00,0.00,0.00,2.14,0.65,51.31
33.974305,0.0024,0.0635,1.0010,0.06,0.00,-0.06,2.14,0.65,51.31
33.974305,0.0020,0.0635,1.0020,0.00,0.00,-0.06,2.14,0.65,51.31
34.003665,0.0024,0.0630,1.0034,0.00,0.00,-0.06,2.14,0.65,51.31
34.003665,0.0020,0.0630,1.0034,0.00,0.00,-0.06,2.14,0.65,51.31
34.064647,0.0020,0.0625,1.0020,0.06,0.00,-0.12,2.14,0.65,51.31
34.064647,0.0024,0.0625,1.0020,0.00,0.00,-0.06,2.14,0.65,51.31
34.096343,0.0020,0.0630,1.0010,0.00,0.00,0.00,2.14,0.65,51.31
34.096343,0.0020,0.0630,1.0024,0.06,0.00,0.00,2.14,0.65,51.31
34.124412,0.0015,0.0635,1.0024,0.00,0.00,-0.06,2.14,0.65,51.31
34.124412,0.0020,0.0630,1.0015,0.00,0.00,-0.06,2.14,0.65,51.31
34.184404,0.0024,0.0630,1.0015,0.00,0.00,0.00,2.14,0.65,51.31
34.184404,0.0024,0.0625,1.0020,0.00,0.00,-0.06,2.14,0.65,51.31
34.213553,0.0020,0.0620,1.0015,0.00,0.00,-0.12,2.14,0.65,51.31
34.213553,0.0015,0.0625,1.0020,0.00,0.00,0.00,2.14,0.65,51.31
34.244353,0.0015,0.0625,1.0029,0.06,0.00,-0.06,2.14,0.65,51.31
34.244353,0.0015,0.0630,1.0024,0.06,0.00,0.00,2.14,0.65,51.32
34.304471,0.0015,0.0620,1.0020,0.00,0.00,0.00,2.14,0.65,51.32
34.304471,0.0020,0.0625,1.0024,0.00,0.00,0.00,2.14,0.65,51.32
34.333563,0.0020,0.0625,1.0020,0.00,0.00,0.00,2.14,0.65,51.32
34.333563,0.0015,0.0625,1.0015,0.00,0.00,0.00,2.14,0.65,51.32
34.363998,0.0020,0.0620,1.0010,0.06,0.00,0.00,2.14,0.65,51.32
34.363998,0.0024,0.0630,1.0020,0.00,0.00,0.00,2.14,0.65,51.32
34.424413,0.0015,0.0630,1.0010,0.00,0.00,-0.06,2.14,0.65,51.32
34.424413,0.0020,0.0635,1.0015,0.00,0.00,0.00,2.14,0.65,51.32
34.454686,0.0015,0.0635,1.0020,0.00,0.00,0.00,2.14,0.65,51.32
34.454686,0.0015,0.0630,1.0020,0.00,0.00,-0.06,2.14,0.65,51.32
34.513689,0.0024,0.0625,1.0020,0.00,0.00,0.00,2.14,0.65,51.32
34.513689,0.0020,0.0635,1.0015,0.00,0.00,-0.06,2.14,0.65,51.32
34.558055,0.0024,0.0635,1.0020,0.00,0.00,0.00,2.14,0.65,51.32
34.558055,0.0029,0.0625,1.0020,0.00,0.00,-0.06,2.14,0.65,51.32
34.574397,0.0024,0.0630,1.0015,0.00,0.00,-0.06,2.14,0.65,51.32
34.574397,0.0020,0.0630,1.0024,0.00,0.00,-0.06,2.14,0.65,51.32
34.634826,0.0020,0.0640,1.0020,0.00,0.00,0.00,2.14,0.65,51.32
34.634826,0.0020,0.0625,1.0024,0.00,0.00,0.00,2.14,0.65,51.32
34.663962,0.0020,0.0620,1.0010,0.00,0.06,-0.06,2.14,0.65,51.32
34.663962,0.0024,0.0635,1.0020,0.06,0.00,-0.12,2.14,0.65,51.32
34.694372,0.0024,0.0625,1.0024,0.00,0.00,0.00,2.14,0.65,51.32
34.694372,0.0020,0.0630,1.0020,0.00,0.00,0.00,2.14,0.65,51.32
34.852249,0.0015,0.0620,1.0020,0.00,0.00,-0.06,2.14,0.65,51.32
34.852249,0.0020,0.0620,1.0005,0.06,0.00,-0.06,2.14,0.65,51.32
34.852280,0.0020,0.0630,1.0010,0.00,0.00,-0.06,2.14,0.65,51.32
34.852280,0.0034,0.0635,1.0015,0.00,0.00,0.00,2.14,0.65,51.32
34.852290,0.0020,0.0620,1.0029,0.00,0.00,-0.06,2.14,0.65,51.32
34.852290,0.0015,0.0620,1.0020,0.00,0.00,0.00,2.14,0.65,51.32
34.874111,0.0015,0.0620,1.0015,0.00,0.00,0.00,2.14,0.65,51.32
34.874111,0.0015,0.0630,1.0024,0.00,0.00,-0.06,2.14,0.65,51.32
34.903544,0.0020,0.0625,1.0020,0.00,0.00,-0.06,2.14,0.65,51.32
34.903544,0.0020,0.0635,1.0015,0.00,0.06,-0.06,2.14,0.65,51.32
34.934099,0.0020,0.0635,1.0020,0.00,0.00,0.00,2.14,0.65,51.32
34.934099,0.0024,0.0630,1.0015,0.00,0.00,0.00,2.14,0.65,51.32
34.994160,0.0024,0.0630,1.0015,0.00,0.00,-0.12,2.14,0.65,51.32
34.994160,0.0020,0.0635,1.0024,0.06,0.00,0.00,2.14,0.65,51.32
35.023687,0.0020,0.0625,1.0029,0.00,0.00,-0.06,2.14,0.65,51.32
35.023687,0.0024,0.0635,1.0020,0.00,0.00,0.00,2.14,0.65,51.32
35.053612,0.0020,0.0635,1.0020,0.06,0.00,0.00,2.14,0.65,51.33
35.053612,0.0024,0.0630,1.0015,0.00,0.00,0.00,2.14,0.65,51.33
35.114223,0.0024,0.0625,1.0015,0.00,0.00,-0.06,2.14,0.65,51.33
35.114223,0.0020,0.0630,1.0020,0.00,0.00,-0.06,2.14,0.65,51.33
35.145433,0.0024,0.0635,1.0024,0.00,0.00,0.00,2.14,0.65,51.33
35.145433,0.0024,0.0625,1.0020,0.00,0.00,0.00,2.14,0.65,51.33
35.173919,0.0015,0.0625,1.0015,0.00,0.00,0.00,2.14,0.65,51.33
35.173919,0.0024,0.0630,1.0024,0.06,0.00,-0.06,2.14,0.65,51.33
35.234488,0.0015,0.0630,1.0015,0.00,0.00,-0.06,2.14,0.65,51.33
35.234488,0.0020,0.0630,1.0015,0.06,0.00,0.00,2.14,0.65,51.33
35.264601,0.0015,0.0625,1.0010,0.06,0.00,0.00,2.14,0.65,51.33
35.264601,0.0020,0.0630,1.0015,0.00,0.00,-0.06,2.14,0.65,51.33
35.293695,0.0015,0.0635,1.0010,0.00,0.00,-0.06,2.14,0.65,51.33
35.293695,0.0015,0.0630,1.0015,0.00,0.00,-0.06,2.14,0.65,51.33
35.354657,0.0015,0.0635,1.0015,0.00,0.00,-0.06,2.14,0.65,51.33
35.354657,0.0015,0.0630,1.0020,0.00,0.00,0.00,2.14,0.65,51.33
35.383980,0.0020,0.0635,1.0029,0.00,0.00,-0.06,2.14,0.65,51.33
35.383980,0.0020,0.0640,1.0024,0.00,0.00,0.00,2.14,0.65,51.33
35.416409,0.0015,0.0630,1.0020,0.00,0.00,0.00,2.14,0.65,51.33
35.416409,0.0020,0.0625,1.0024,0.00,0.00,0.00,2.14,0.65,51.33
35.474454,0.0015,0.0630,1.0024,0.00,0.00,-0.06,2.14,0.65,51.33
35.474454,0.0020,0.0620,1.0029,0.00,0.00,-0.06,2.14,0.65,51.33
35.505343,0.0029,0.0625,1.0020,0.00,0.00,-0.06,2.14,0.65,51.33
35.505343,0.0015,0.0625,1.0015,0.00,0.00,-0.06,2.14,0.65,51.33
35.534184,0.0020,0.0625,1.0015,0.00,0.00,0.00,2.14,0.65,51.33
35.534184,0.0015,0.0625,1.0015,0.00,0.00,-0.06,2.14,0.65,51.33
35.594478,0.0020,0.0625,1.0015,0.00,0.00,0.00,2.14,0.65,51.33
35.594478,0.0010,0.0635,1.0020,0.00,0.00,0.00,2.14,0.65,51.33
35.624681,0.0020,0.0625,1.0024,0.00,0.00,-0.06,2.14,0.65,51.33
35.624681,0.0020,0.0625,1.0020,0.06,0.00,0.00,2.14,0.65,51.33
35.654081,0.0020,0.0625,1.0024,0.00,-0.06,0.00,2.14,0.65,51.33
35.654081,0.0015,0.0635,1.0020,0.00,0.00,-0.06,2.14,0.65,51.33
35.713861,0.0024,0.0630,1.0020,0.00,0.00,0.00,2.14,0.65,51.33
35.713861,0.0020,0.0635,1.0020,0.00,0.00,0.00,2.14,0.65,51.33
35.744913,0.0024,0.0630,1.0024,0.00,0.00,0.00,2.14,0.65,51.33
35.744913,0.0024,0.0635,1.0020,0.00,0.00,0.00,2.14,0.65,51.33
35.776755,0.0024,0.0625,1.0020,0.00,0.00,-0.06,2.14,0.65,51.33
35.776755,0.0024,0.0625,1.0005,0.06,0.00,-0.06,2.14,0.65,51.33
35.834750,0.0029,0.0625,1.0020,0.00,0.00,-0.06,2.14,0.65,51.33
35.834750,0.0024,0.0630,1.0015,0.00,0.00,-0.12,2.14,0.65,51.33
35.863906,0.0015,0.0620,1.0029,0.00,0.00,0.00,2.14,0.65,51.34
35.863906,0.0015,0.0620,1.0015,0.00,0.00,0.00,2.14,0.65,51.34
35.924580,0.0015,0.0630,1.0020,0.00,0.00,0.00,2.14,0.65,51.34
35.924580,0.0024,0.0625,1.0024,0.00,0.00,0.00,2.14,0.65,51.34
35.955881,0.0010,0.0630,1.0020,0.00,0.00,-0.06,2.14,0.65,51.34
35.955881,0.0005,0.0635,1.0020,0.00,0.00,0.00,2.14,0.65,51.34
35.984213,0.0015,0.0630,1.0020,0.00,0.00,-0.06,2.14,0.65,51.34
35.984213,0.0015,0.0625,1.0015,0.00,0.00,0.00,2.14,0.65,51.34
36.045177,0.0024,0.0625,1.0015,0.00,0.00,-0.06,2.14,0.65,51.34
36.045177,0.0015,0.0635,1.0020,0.06,0.00,-0.06,2.14,0.65,51.34
36.074019,0.0005,0.0630,1.0029,0.00,0.00,0.00,2.14,0.65,51.34
36.074019,0.0020,0.0640,1.0020,0.00,-0.06,0.00,2.14,0.65,51.34
36.103786,0.0024,0.0630,1.0015,0.00,0.00,0.00,2.14,0.65,51.34
36.103786,0.0024,0.0630,1.0020,0.06,0.00,0.00,2.14,0.65,51.34
36.164733,0.0029,0.0625,1.0039,0.00,0.00,0.00,2.14,0.65,51.34
36.164733,0.0034,0.0630,1.0015,0.00,0.00,-0.06,2.14,0.65,51.34
36.193967,0.0024,0.0625,1.0029,0.00,0.00,-0.06,2.14,0.65,51.34
36.193967,0.0029,0.0625,1.0020,0.00,0.00,-0.06,2.14,0.65,51.34
36.225234,0.0024,0.0625,1.0024,0.00,0.00,-0.06,2.14,0.65,51.34
36.225234,0.0020,0.0640,1.0024,0.00,0.00,-0.06,2.14,0.65,51.34
36.285113,0.0024,0.0630,1.0020,0.00,0.00,0.00,2.14,0.65,51.34
36.285113,0.0020,0.0630,1.0029,0.00,0.00,0.00,2.14,0.65,51.34
36.314237,0.0015,0.0635,1.0029,0.06,0.00,0.00,2.14,0.65,51.34
36.314237,0.0020,0.0635,1.0015,0.00,0.00,0.00,2.14,0.65,51.34
36.344685,0.0015,0.0635,1.0024,0.00,0.00,-0.06,2.14,0.65,51.34
36.344685,0.0015,0.0630,1.0015,0.00,0.00,0.00,2.14,0.65,51.34
36.403952,0.0010,0.0645,1.0029,0.00,0.00,-0.06,2.14,0.65,51.34
36.403952,0.0010,0.0625,1.0020,0.00,0.00,-0.06,2.14,0.65,51.34
36.435846,0.0020,0.0635,1.0005,0.00,0.00,-0.06,2.14,0.65,51.34
36.435846,0.0015,0.0635,1.0010,0.00,0.00,-0.06,2.14,0.65,51.34
36.464156,0.0020,0.0635,1.0010,0.00,0.00,0.00,2.14,0.65,51.34
36.464156,0.0010,0.0630,1.0020,0.00,0.00,0.00,2.14,0.65,51.34
36.526740,0.0020,0.0635,1.0024,0.00,0.00,0.00,2.14,0.65,51.34
36.526740,0.0015,0.0625,1.0024,0.00,0.00,-0.06,2.14,0.65,51.34
36.556744,0.0024,0.0625,1.0024,0.00,0.00,-0.12,2.14,0.65,51.34
36.556744,0.0020,0.0625,1.0015,0.00,0.00,-0.06,2.14,0.65,51.34
36.586749,0.0020,0.0630,1.0015,0.00,0.00,-0.06,2.14,0.65,51.34
36.586749,0.0024,0.0635,1.0010,0.00,0.00,0.00,2.14,0.65,51.34
36.646775,0.0024,0.0635,1.0010,0.00,0.00,0.00,2.14,0.65,51.34
36.646775,0.0020,0.0630,1.0005,0.00,0.00,0.00,2.14,0.65,51.34
36.677206,0.0015,0.0630,1.0005,0.00,0.00,-0.06,2.14,0.65,51.34
36.677206,0.0020,0.0630,1.0010,0.00,0.00,0.00,2.14,0.65,51.34
36.706858,0.0020,0.0625,1.0020,0.00,0.00,-0.06,2.14,0.65,51.35
36.706858,0.0024,0.0630,1.0010,0.00,0.00,0.00,2.14,0.65,51.35
36.765206,0.0020,0.0630,1.0024,0.00,0.00,0.00,2.14,0.65,51.35
36.765206,0.0020,0.0630,1.0010,0.00,0.00,0.00,2.14,0.65,51.35
36.797060,0.0020,0.0625,1.0015,0.00,0.00,-0.06,2.14,0.65,51.35
36.797060,0.0024,0.0625,1.0020,0.00,0.00,0.00,2.14,0.65,51.35
36.825121,0.0015,0.0625,1.0020,0.00,0.00,0.00,2.14,0.65,51.35
36.825121,0.0024,0.0630,1.0015,0.00,0.00,0.00,2.14,0.65,51.35
36.884745,0.0020,0.0625,1.0020,0.00,0.00,0.00,2.14,0.65,51.35
36.884745,0.0029,0.0635,1.0005,0.00,0.00,0.00,2.14,0.65,51.35
36.913920,0.0024,0.0635,1.0020,0.00,0.00,0.00,2.14,0.65,51.35
36.913920,0.0020,0.0630,1.0000,0.00,0.00,-0.06,2.14,0.65,51.35
36.944646,0.0034,0.0630,1.0020,0.00,0.00,-0.06,2.14,0.65,51.35
36.944646,0.0024,0.0630,1.0005,0.00,0.00,0.00,2.14,0.65,51.35
37.004645,0.0015,0.0635,1.0015,0.00,0.00,0.00,2.14,0.65,51.35
37.004645,0.0020,0.0630,1.0020,0.06,0.00,-0.06,2.14,0.65,51.35
37.033966,0.0024,0.0620,1.0015,0.06,0.00,0.00,2.14,0.65,51.35
37.033966,0.0024,0.0635,1.0015,0.06,0.00,-0.12,2.14,0.65,51.35
37.064024,0.0020,0.0630,1.0015,0.06,0.00,0.00,2.14,0.65,51.35
37.064024,0.0020,0.0625,1.0020,0.00,0.00,0.00,2.14,0.65,51.35
37.124423,0.0010,0.0625,1.0020,0.00,0.00,-0.06,2.14,0.65,51.35
37.124423,0.0015,0.0630,1.0015,0.00,0.00,-0.06,2.14,0.65,51.35
37.154775,0.0024,0.0630,1.0029,0.00,0.00,0.00,2.14,0.65,51.35
37.154775,0.0020,0.0630,1.0015,0.06,0.00,-0.06,2.14,0.65,51.36
37.184637,0.0020,0.0630,1.0024,0.06,0.00,-0.06,2.14,0.65,51.36
37.184637,0.0010,0.0630,1.0015,0.00,0.00,0.00,2.14,0.65,51.36
37.244723,0.0024,0.0635,1.0010,0.00,0.00,0.00,2.14,0.65,51.36
37.244723,0.0020,0.0625,1.0020,0.00,-0.06,0.00,2.14,0.65,51.36
37.276956,0.0029,0.0635,1.0020,0.00,0.00,0.00,2.14,0.65,51.36
37.276956,0.0020,0.0635,1.0024,0.00,0.00,0.00,2.14,0.65,51.36
37.335129,0.0024,0.0625,1.0015,0.00,0.00,-0.06,2.14,0.65,51.36
37.335129,0.0020,0.0635,1.0010,0.00,0.00,0.00,2.14,0.65,51.36
37.364008,0.0024,0.0630,1.0015,0.00,0.00,0.00,2.14,0.65,51.36
37.364008,0.0024,0.0635,1.0024,0.00,0.06,0.00,2.14,0.65,51.36
37.394674,0.0029,0.0630,1.0020,0.00,0.00,0.00,2.14,0.65,51.36
37.394674,0.0020,0.0640,1.0015,0.00,0.00,0.00,2.14,0.65,51.36
37.454731,0.0029,0.0630,1.0020,0.00,0.00,-0.06,2.14,0.65,51.36
37.454731,0.0029,0.0630,1.0020,0.00,0.00,-0.06,2.14,0.65,51.36
37.483876,0.0024,0.0635,1.0024,0.00,0.00,0.00,2.14,0.65,51.36
37.483876,0.0024,0.0630,1.0029,0.00,0.00,-0.06,2.14,0.65,51.36
37.514716,0.0024,0.0630,1.0015,0.00,0.00,-0.12,2.14,0.65,51.36
37.514716,0.0024,0.0625,1.0015,0.00,0.00,0.00,2.14,0.65,51.36
37.574732,0.0029,0.0630,1.0024,0.00,0.00,-0.06,2.14,0.65,51.36
37.574732,0.0020,0.0630,1.0015,0.00,0.00,0.00,2.14,0.65,51.36
37.603965,0.0029,0.0625,1.0010,0.00,0.00,-0.06,2.14,0.65,51.36
37.603965,0.0020,0.0625,1.0015,0.00,0.00,-0.06,2.14,0.65,51.36
37.634026,0.0020,0.0635,1.0015,0.06,0.00,-0.06,2.14,0.65,51.36
37.634026,0.0024,0.0630,1.0015,0.00,0.00,0.00,2.14,0.65,51.36
37.694733,0.0024,0.0630,1.0010,0.06,0.00,0.00,2.14,0.65,51.36
37.694733,0.0024,0.0630,1.0010,0.00,0.00,-0.06,2.14,0.65,51.36
37.723963,0.0024,0.0625,1.0015,0.00,0.00,-0.06,2.14,0.65,51.36
37.723963,0.0015,0.0625,1.0015,0.00,0.00,0.00,2.14,0.65,51.36
37.757701,0.0020,0.0635,1.0020,0.00,0.00,0.00,2.14,0.65,51.36
37.757701,0.0020,0.0620,1.0015,0.00,0.00,0.00,2.14,0.65,51.36
37.814750,0.0015,0.0635,1.0015,0.00,0.00,0.00,2.14,0.65,51.36
37.814750,0.0024,0.0630,1.0010,0.00,0.00,0.00,2.14,0.65,51.36
37.843928,0.0024,0.0630,1.0015,0.00,0.00,-0.06,2.14,0.65,51.36
37.843928,0.0024,0.0630,1.0010,0.00,0.00,0.00,2.14,0.65,51.36
37.874942,0.0024,0.0630,1.0020,0.00,0.00,0.00,2.14,0.65,51.36
37.874942,0.0024,0.0635,1.0015,0.00,0.00,0.00,2.14,0.65,51.36
37.934740,0.0020,0.0640,1.0015,0.00,0.00,0.00,2.14,0.65,51.36
37.934740,0.0010,0.0635,1.0010,0.00,0.00,-0.06,2.14,0.65,51.36
37.965111,0.0020,0.0635,1.0010,0.00,0.00,0.00,2.14,0.65,51.36
37.965111,0.0020,0.0630,1.0015,0.06,0.00,-0.06,2.14,0.65,51.36
37.996657,0.0024,0.0630,1.0020,0.00,0.00,0.00,2.14,0.65,51.36
37.996657,0.0024,0.0630,1.0020,0.00,0.00,0.00,2.14,0.65,51.36
38.054006,0.0015,0.0635,1.0024,0.00,0.00,-0.06,2.14,0.65,51.36
38.054006,0.0024,0.0620,1.0024,0.00,0.00,0.00,2.14,0.65,51.36
38.084722,0.0020,0.0635,1.0029,0.00,0.00,-0.06,2.14,0.65,51.36
38.084722,0.0020,0.0630,1.0024,0.00,0.00,-0.06,2.14,0.65,51.36
38.115104,0.0010,0.0630,1.0015,0.00,0.00,-0.12,2.14,0.65,51.36
38.115104,0.0015,0.0635,1.0020,0.00,0.00,-0.06,2.14,0.65,51.37
38.175671,0.0020,0.0640,1.0015,0.00,0.00,0.00,2.14,0.65,51.37
38.175671,0.0024,0.0635,1.0015,0.00,0.00,-0.06,2.15,0.65,51.37
38.204162,0.0024,0.0630,1.0010,0.00,0.00,-0.06,2.15,0.65,51.37
38.204162,0.0020,0.0630,1.0020,0.00,0.00,-0.06,2.15,0.65,51.37
38.234052,0.0020,0.0620,1.0010,0.00,0.00,0.00,2.15,0.65,51.37
38.234052,0.0015,0.0630,1.0020,0.00,0.06,-0.06,2.15,0.65,51.37
38.294124,0.0024,0.0620,1.0015,0.00,0.00,-0.06,2.15,0.65,51.37
38.294124,0.0015,0.0630,1.0005,0.00,0.00,0.00,2.15,0.65,51.37
38.323934,0.0015,0.0630,1.0020,0.00,-0.06,-0.06,2.15,0.65,51.37
38.323934,0.0020,0.0625,1.0020,0.00,0.00,-0.06,2.15,0.65,51.37
38.353987,0.0024,0.0630,1.0015,0.00,0.00,0.00,2.15,0.65,51.37
38.353987,0.0029,0.0635,1.0015,0.00,0.00,0.00,2.15,0.65,51.37
38.415117,0.0024,0.0635,1.0020,0.00,0.00,0.00,2.15,0.65,51.37
38.415117,0.0020,0.0625,1.0020,0.00,-0.06,0.00,2.15,0.65,51.37
38.446671,0.0020,0.0625,1.0010,0.00,0.00,0.00,2.15,0.65,51.37
38.446671,0.0020,0.0635,1.0015,0.00,0.00,-0.06,2.15,0.65,51.37
38.475352,0.0024,0.0630,1.0015,0.00,0.00,0.00,2.15,0.65,51.37
38.475352,0.0029,0.0630,1.0024,0.00,0.00,-0.06,2.15,0.65,51.37
38.536645,0.0029,0.0630,1.0000,0.06,0.00,0.00,2.15,0.65,51.37
38.536645,0.0020,0.0630,1.0010,0.00,0.00,-0.06,2.15,0.65,51.37
38.566734,0.0020,0.0635,1.0020,0.00,0.00,0.00,2.15,0.65,51.37
38.566734,0.0020,0.0640,1.0020,0.00,0.00,0.00,2.15,0.65,51.37
38.597031,0.0015,0.0630,1.0010,0.00,0.00,0.00,2.15,0.65,51.37
38.597031,0.0020,0.0620,1.0020,0.00,0.00,0.00,2.15,0.65,51.37
38.655165,0.0020,0.0625,1.0020,0.00,0.00,-0.06,2.15,0.65,51.37
38.655165,0.0015,0.0630,1.0020,0.00,0.00,-0.06,2.15,0.65,51.37
38.684040,0.0024,0.0635,1.0015,0.00,0.00,-0.06,2.15,0.65,51.37
38.684040,0.0029,0.0630,1.0005,0.00,0.00,0.00,2.15,0.65,51.37
38.744760,0.0034,0.0625,1.0020,0.00,0.00,-0.12,2.15,0.65,51.37
38.744760,0.0034,0.0630,1.0020,0.00,0.00,0.00,2.15,0.65,51.37
