t,ax,ay,az,gx,gy,gz,wx,wy,wz
0.030717,-0.0342,-0.9863,0.1035,0.06,4.39,-0.18,-1.46,0.78,0.00
0.030717,-0.0454,-0.9907,0.0850,-0.79,6.10,-0.18,-1.46,0.78,0.00
0.030955,-0.0259,-1.0015,0.0474,-0.55,3.78,-0.37,-1.46,0.78,0.00
0.030955,-0.0239,-1.0010,0.0503,0.79,2.62,0.06,-1.46,0.78,0.00
0.061011,-0.0298,-0.9893,0.0889,0.79,3.30,-0.73,-1.46,0.78,0.00
0.061011,-0.0156,-0.9951,0.0737,-0.31,2.38,-0.49,-1.46,0.78,0.00
0.119079,-0.0005,-0.9990,0.0688,0.00,4.33,-0.37,-1.46,0.78,0.00
0.119079,-0.0127,-0.9985,0.0659,0.31,6.35,-0.31,-1.46,0.78,0.00
0.148215,-0.0264,-0.9985,0.0566,0.67,5.92,-0.43,-1.46,0.78,0.00
0.148215,-0.0156,-0.9971,0.0688,0.55,6.41,0.00,-1.46,0.78,0.00
0.178902,-0.0312,-0.9937,0.0664,0.55,5.19,-0.18,-1.46,0.78,0.00
0.178902,-0.0352,-0.9951,0.0688,0.49,2.99,-0.06,-1.46,0.78,0.00
0.241185,-0.0205,-0.9907,0.0903,0.00,2.01,-0.06,-1.46,0.78,0.00
0.241185,-0.0132,-0.9902,0.0874,-1.16,4.58,-0.55,-1.46,0.78,0.00
0.272401,-0.0288,-1.0024,0.0571,-1.04,4.27,-0.43,-1.46,0.78,0.00
0.272401,-0.0171,-0.9971,0.0752,-0.37,5.00,-0.24,-1.46,0.78,0.00
0.301350,-0.0327,-0.9980,0.0630,-0.43,4.09,-0.55,-1.46,0.78,0.00
0.301350,-0.0215,-1.0010,0.0527,0.06,2.14,-0.24,-1.46,0.78,0.00
0.359139,-0.0176,-1.0005,0.0557,0.85,0.18,0.00,-1.46,0.78,0.00
0.359139,-0.0293,-0.9922,0.0791,0.98,0.00,0.00,-1.46,0.78,0.00
0.389166,-0.0273,-0.9941,0.0752,0.43,0.00,-0.61,-1.46,0.78,0.00
0.389166,-0.0122,-0.9937,0.0840,0.24,-0.12,-0.24,-1.46,0.78,0.00
0.418990,-0.0288,-0.9907,0.0840,-0.67,-0.18,-0.24,-1.46,0.78,0.00
0.418990,-0.0127,-0.9951,0.0781,-0.98,0.37,0.00,-1.46,0.78,0.00
0.479178,-0.0186,-0.9985,0.0596,-0.73,0.43,-0.61,-1.46,0.78,0.00
0.479178,-0.0083,-1.0005,0.0605,-0.12,0.18,0.00,-1.46,0.78,0.00
0.508284,-0.0195,-0.9946,0.0742,-0.06,0.00,0.00,-1.46,0.78,0.00
0.508284,-0.0215,-0.9951,0.0732,-0.37,0.00,0.00,-1.46,0.78,0.00
0.539274,-0.0229,-0.9971,0.0669,-0.31,0.00,-0.06,-1.46,0.78,0.00
0.539274,-0.0171,-0.9966,0.0718,-0.24,-0.06,0.00,-1.46,0.78,0.00
0.628387,-0.0288,-0.9951,0.0693,-0.49,-0.55,-0.06,-1.46,0.78,0.00
0.628387,-0.0210,-0.9995,0.0625,-0.06,-0.79,-0.18,-1.46,0.78,0.00
0.630434,-0.0181,-0.9937,0.0801,-0.06,-0.31,-0.06,-1.46,0.78,0.00
0.630434,-0.0327,-0.9956,0.0649,-0.12,-1.40,-0.24,-1.46,0.78,0.00
0.658912,-0.0186,-0.9946,0.0732,0.00,-1.22,-0.43,-1.46,0.78,0.00
0.658912,-0.0176,-0.9971,0.0703,-0.31,-0.92,-0.24,-1.46,0.78,0.00
0.719105,-0.0137,-0.9980,0.0659,-0.18,-0.61,-0.12,-1.46,0.78,0.00
0.719105,-0.0156,-0.9966,0.0674,-0.12,-0.18,-0.06,-1.46,0.78,0.00
0.748047,-0.0151,-1.0000,0.0610,0.49,-0.06,0.00,-1.46,0.78,0.00
0.748047,-0.0234,-0.9951,0.0742,0.55,-0.12,-0.06,-1.46,0.78,0.00
0.778754,-0.0244,-0.9927,0.0796,0.06,-0.43,-0.18,-1.46,0.78,0.00
0.778754,-0.0166,-0.9927,0.0835,-0.43,-0.12,-0.24,-1.46,0.78,0.00
0.839401,-0.0181,-0.9941,0.0762,-1.04,0.00,-0.24,-1.46,0.78,0.00
0.839401,-0.0122,-0.9956,0.0762,-1.22,0.06,0.06,-1.46,0.78,0.00
0.867991,-0.0186,-0.9917,0.0869,-2.01,0.00,0.00,-1.46,0.78,0.00
0.867991,-0.0171,-0.9966,0.0674,-2.56,0.06,0.18,-1.46,0.78,0.00
0.899470,-0.0186,-0.9966,0.0645,-2.26,0.00,0.24,-1.46,0.78,0.00
0.899470,-0.0190,-0.9961,0.0732,-2.62,-0.79,0.49,-1.46,0.78,0.00
0.959069,-0.0205,-1.0024,0.0479,-2.20,-2.99,0.06,-1.46,0.78,0.00
0.959069,-0.0098,-0.9990,0.0640,-1.40,-3.78,0.79,-1.46,0.78,0.00
0.989702,-0.0361,-0.9888,0.0874,-2.26,-3.23,0.43,-1.46,0.78,0.00
0.989702,-0.0425,-0.9951,0.0669,-3.11,-2.62,-0.24,-1.46,0.78,0.00
1.019079,-0.0215,-1.0103,0.0117,-1.59,-4.15,-0.49,-1.46,0.78,0.00
1.019079,-0.0435,-1.0000,0.0024,0.49,-6.10,-0.37,-1.46,0.78,0.00
1.079020,-0.0269,-1.0234,-0.0391,3.11,-11.72,-0.06,-1.46,0.78,0.00
1.079020,-0.0425,-1.0039,-0.0205,6.29,-14.16,1.04,-1.46,0.78,0.00
1.108238,0.0146,-1.0103,0.0396,7.81,-12.51,0.98,-1.46,0.78,0.00
1.108238,0.0498,-1.3105,0.0933,9.95,-7.87,3.54,-1.46,0.78,0.00
1.169029,0.2139,-1.5596,0.0293,21.30,4.39,16.60,-1.46,0.78,0.00
1.169029,0.1582,-1.3701,0.0142,32.10,2.81,43.82,-1.46,0.78,0.00
1.199358,-0.1309,-1.3970,0.1929,29.72,-1.95,54.81,-1.46,0.78,0.00
1.199358,-0.2905,-1.3638,0.2300,17.64,3.23,37.78,-1.46,0.78,0.00
1.228330,-0.2402,-1.3628,0.2222,5.62,4.76,19.84,-1.46,0.78,0.00
1.228330,-0.1572,-1.4316,0.2114,-3.05,7.87,11.84,-1.46,0.78,0.00
1.289863,-0.1621,-1.4395,0.2310,-14.65,10.01,6.96,-1.46,0.78,0.00
1.289863,-0.1885,-1.4810,0.1953,-29.05,8.42,1.10,-1.46,0.78,0.00
1.318301,-0.1729,-1.5684,0.1270,-36.01,8.97,-4.82,-1.46,0.78,0.00
1.318301,-0.1235,-1.5757,0.1362,-37.05,9.03,-8.54,-1.46,0.78,0.00
1.349491,-0.0815,-1.4658,0.1963,-42.66,5.92,-8.54,-1.46,0.78,0.00
1.349491,-0.0596,-1.4272,0.2549,-51.51,2.56,-8.42,-1.46,0.78,0.00
1.409143,0.0273,-1.3716,0.2285,-58.41,3.11,-4.03,-1.46,0.78,0.00
1.409143,0.0596,-1.2881,0.1958,-61.77,4.46,5.80,-1.46,0.78,0.00
1.440003,0.0513,-1.2046,0.1689,-61.83,10.01,15.50,-1.46,0.78,0.00
1.440003,0.0151,-1.0825,0.0571,-59.08,11.41,24.17,-1.46,0.78,0.00
1.469108,-0.0659,-0.9541,-0.0303,-50.66,15.38,29.60,-1.46,0.78,0.00
1.469108,-0.1636,-0.8467,-0.0806,-35.71,23.68,29.36,-1.46,0.78,0.00
1.529060,-0.2007,-0.8521,-0.1011,-16.91,27.04,24.60,-1.46,0.78,0.00
1.529060,-0.1577,-0.8398,-0.0605,-1.53,25.94,19.96,-1.46,0.78,0.00
1.558409,-0.1465,-0.7358,0.0093,2.75,20.69,16.78,-1.46,0.78,0.00
1.558409,-0.1719,-0.6685,0.0952,-4.27,12.21,10.07,-1.46,0.78,0.00
1.590115,-0.1250,-0.6250,0.0972,-15.56,7.08,3.11,-1.46,0.78,0.00
1.590115,-0.1719,-0.5532,0.0498,-24.29,2.56,0.73,-1.46,0.78,0.00
1.649061,-0.2241,-0.5215,0.0444,-32.53,-0.92,-3.85,-1.46,0.78,0.00
1.649061,-0.2222,-0.5811,0.0352,-36.38,-1.22,-12.15,-1.46,0.78,0.00
1.678299,-0.1309,-0.5874,-0.0562,-36.13,-0.49,-16.97,-1.46,0.78,0.00
1.678299,-0.1016,-0.5815,-0.0776,-35.03,-2.87,-15.99,-1.46,0.78,0.00
1.709056,-0.1338,-0.5210,-0.0498,-39.18,-5.49,-15.93,-1.46,0.78,0.00
1.709056,-0.1855,-0.5200,-0.0854,-46.26,-10.31,-20.14,-1.46,0.78,0.00
1.776657,-0.1499,-0.5684,-0.1924,-47.97,-9.52,-26.06,-1.46,0.78,0.00
1.776657,-0.0791,-0.6084,-0.2842,-40.71,-5.55,-26.61,-1.46,0.78,0.00
1.798515,-0.0288,-0.6445,-0.3296,-29.24,-2.01,-23.25,-1.46,0.78,0.00
1.798515,0.0142,-0.6738,-0.2876,-18.92,3.54,-18.43,-1.46,0.78,0.00
1.829151,0.0371,-0.6284,-0.2910,-13.24,9.70,-9.77,-1.46,0.78,0.00
1.829151,-0.0068,-0.5767,-0.2861,-12.39,13.06,-1.28,-1.46,0.78,0.00
1.890336,-0.0503,-0.5981,-0.3340,-12.02,14.59,0.06,-1.46,0.78,0.00
1.890336,-0.0327,-0.6187,-0.3438,-11.35,10.44,-0.12,-1.46,0.78,0.00
1.918334,-0.0088,-0.6172,-0.3174,-14.53,6.35,2.87,-1.46,0.78,0.00
1.918334,0.0039,-0.6509,-0.3521,-16.30,6.90,6.84,-1.46,0.78,0.00
1.948997,0.0059,-0.6768,-0.4473,-10.68,11.72,12.02,-1.46,0.78,0.00
1.948997,-0.0566,-0.6826,-0.4922,1.28,14.16,16.05,-1.46,0.78,0.00
2.011180,-0.1245,-0.6816,-0.4478,14.65,13.00,14.16,-1.46,0.78,0.00
2.011180,-0.1001,-0.6670,-0.3691,25.51,14.95,9.09,-1.46,0.78,0.00
2.041303,-0.0664,-0.6318,-0.3042,31.31,15.50,8.36,-1.46,0.78,0.00
2.041303,-0.1221,-0.6265,-0.2695,32.10,13.24,8.97,-1.46,0.78,0.00
2.099365,-0.1777,-0.6333,-0.2124,30.15,11.66,4.94,-1.46,0.78,0.00
2.099365,-0.1387,-0.6733,-0.2280,28.56,10.01,-2.93,-1.46,0.78,0.00
2.128334,-0.0732,-0.7197,-0.2222,29.24,3.66,-6.35,-1.46,0.78,0.00
2.128334,-0.0518,-0.7715,-0.1860,31.98,0.92,-5.55,-1.46,0.78,0.00
2.159063,-0.0918,-0.7959,-0.1357,32.78,0.67,-5.49,-1.46,0.78,0.00
2.159063,-0.0371,-0.8027,-0.1973,33.81,5.49,-9.28,-1.46,0.78,0.00
2.188323,0.0161,-0.8677,-0.2441,39.43,3.97,-9.16,-1.46,0.78,0.00
2.188323,0.0298,-0.8965,-0.1704,43.88,-1.95,-6.29,-1.46,0.78,0.00
2.249256,0.0117,-0.8794,-0.0898,40.65,-8.97,-4.64,-1.46,0.78,0.00
2.249256,0.0723,-0.9922,-0.0757,40.47,-9.03,-5.55,-1.46,0.78,0.00
2.278392,0.1953,-1.0063,-0.0850,47.85,-5.98,4.82,-1.46,0.78,0.00
2.278392,0.0767,-0.9512,-0.0591,57.07,-5.19,20.75,-1.46,0.78,0.00
2.309082,-0.1655,-0.9238,0.0903,58.29,-8.79,18.55,-1.46,0.78,0.00
2.309082,-0.2222,-0.8096,0.1934,43.21,-15.62,4.88,-1.46,0.78,0.00
2.369143,-0.0781,-0.8291,0.1304,26.18,-20.20,-3.05,-1.46,0.78,0.00
2.369143,-0.0674,-0.9360,-0.0039,25.09,-23.68,1.10,-1.46,0.78,0.00
2.398509,-0.1787,-0.9204,-0.0312,27.40,-29.42,1.77,-1.46,0.78,0.00
2.398509,-0.2241,-0.8950,-0.0308,29.48,-27.77,-3.85,-1.46,0.78,0.00
2.429148,-0.1836,-0.9473,-0.0527,33.02,-23.19,-11.23,-1.46,0.78,0.00
2.429148,-0.1870,-0.9868,-0.0166,32.23,-30.40,-19.17,-1.46,0.78,0.00
2.489079,-0.1802,-1.0249,0.0356,26.12,-38.33,-27.04,-1.46,0.78,0.00
2.489079,-0.0942,-1.1060,0.0586,25.51,-39.06,-31.13,-1.46,0.78,0.00
2.518319,0.0283,-1.2642,0.0220,32.29,-34.18,-23.62,-1.46,0.78,0.00
2.518319,-0.0493,-1.3076,-0.0161,45.17,-27.89,-23.07,-1.46,0.78,0.00
2.579187,-0.0957,-1.3506,0.1318,54.26,-25.88,-29.17,-1.46,0.78,0.00
2.579187,0.0493,-1.3081,0.3716,43.76,-24.35,-30.76,-1.46,0.78,0.00
2.608310,0.1270,-1.3110,0.3691,20.26,-29.17,-23.44,-1.46,0.78,0.00
2.608310,0.1357,-1.3672,0.2451,9.34,-27.34,-17.82,-1.46,0.78,0.00
2.640917,0.2329,-1.4189,0.1484,16.72,-18.07,-5.74,-1.46,0.78,0.00
2.640917,0.2158,-1.3569,0.1611,30.76,-9.64,16.48,-1.46,0.78,0.00
2.701765,-0.0806,-1.1836,0.1841,39.73,-7.08,26.18,-1.46,0.78,0.00
2.701765,-0.2856,-1.1162,0.3491,37.05,-7.08,10.44,-1.46,0.78,0.00
2.728317,-0.2407,-1.0439,0.4351,18.19,-6.90,-9.28,-1.46,0.78,0.00
2.728317,-0.1235,-1.1328,0.3252,2.38,-7.57,-21.30,-1.44,0.75,3.59
2.758992,0.0391,-1.2690,0.2305,1.77,-6.23,-22.58,-1.46,0.62,3.13
2.758992,0.1304,-1.2397,0.2559,3.54,-5.07,-13.67,-1.51,0.51,2.76
2.819117,0.1279,-1.1934,0.2427,2.87,-1.83,-4.03,-1.72,0.42,2.60
2.819117,0.0659,-1.1353,0.1895,4.88,-0.37,3.23,-2.11,0.36,2.62
2.848336,0.0034,-1.0615,0.2212,5.62,-0.31,4.03,-2.68,0.31,2.72
2.848336,0.0098,-1.0322,0.2441,2.44,-1.16,3.42,-3.52,0.25,2.82
2.879164,-0.0083,-0.9966,0.2280,-1.40,-1.04,4.03,-4.67,0.19,2.94
2.879164,-0.0337,-1.0034,0.1851,-2.93,-1.28,0.73,-6.15,0.14,3.04
2.939171,0.0186,-1.0103,0.1685,-3.78,-1.77,-2.01,-7.90,0.09,3.08
2.939171,0.0850,-1.0288,0.1753,-5.37,-3.48,0.85,-9.93,0.02,3.14
2.968378,0.0674,-1.0283,0.1538,-4.82,-2.81,6.35,-12.22,-0.08,3.32
2.968378,0.0088,-1.0098,0.1338,-0.18,-1.34,8.12,-14.67,-0.15,3.58
2.999548,-0.0259,-0.9556,0.1865,2.93,1.59,7.39,-17.22,-0.15,3.84
2.999548,-0.0645,-0.9390,0.1880,2.69,0.85,4.88,-19.89,-0.09,4.06
3.059000,-0.0518,-0.9482,0.2017,2.50,0.37,2.38,-22.62,-0.02,4.23
3.059000,-0.0703,-0.9453,0.2212,2.01,1.28,-0.61,-25.37,0.07,4.34
3.088364,-0.0342,-0.9463,0.2236,0.06,3.05,-4.27,-28.15,0.21,4.35
3.088364,-0.0137,-0.9321,0.2275,-5.07,0.49,-4.58,-30.95,0.32,4.32
3.119155,-0.0288,-0.9409,0.1851,-9.22,-0.18,-6.10,-33.80,0.38,4.30
3.119155,0.0107,-1.0117,0.1162,-6.77,-1.22,-6.16,-36.61,0.40,4.26
3.179315,0.0532,-1.0425,0.1255,-0.24,0.24,-2.44,-39.26,0.41,4.27
3.179315,0.0190,-1.0405,0.1392,4.88,2.93,1.28,-41.72,0.47,4.33
3.208267,-0.0239,-1.0225,0.1646,7.63,3.85,0.73,-43.99,0.57,4.39
3.208267,-0.0386,-1.0063,0.1865,5.74,3.30,-2.20,-46.13,0.65,4.39
3.239200,-0.0010,-1.0322,0.1870,1.40,0.37,-4.21,-48.21,0.65,4.38
3.239200,0.0073,-1.0771,0.1665,0.24,-0.49,-2.69,-50.23,0.62,4.41
3.299595,0.0195,-1.1094,0.1768,1.59,0.73,-2.56,-52.12,0.59,4.44
3.299595,0.0547,-1.1260,0.1943,0.85,0.98,0.00,-53.89,0.55,4.49
3.328384,0.0161,-1.1372,0.1851,1.95,1.65,1.71,-55.54,0.54,4.59
3.328384,-0.0288,-1.1182,0.2046,2.08,1.83,-1.04,-57.06,0.53,4.65
3.359089,0.0034,-1.1221,0.2622,-3.17,0.00,-4.03,-58.51,0.45,4.70
3.359089,0.0103,-1.1416,0.2183,-8.24,-0.43,-3.11,-59.96,0.35,4.75
3.419291,-0.0327,-1.1489,0.1729,-8.24,-1.22,-4.33,-61.36,0.24,4.81
3.419291,-0.0361,-1.1470,0.1899,-8.18,-1.10,-6.96,-62.67,0.12,4.84
3.448383,-0.0210,-1.1826,0.1660,-7.39,0.92,-9.83,-63.89,-0.04,4.83
3.448383,0.0225,-1.2388,0.1299,-2.62,5.37,-11.72,-64.97,-0.20,4.73
3.479099,0.0908,-1.2417,0.1616,0.31,9.22,-8.18,-65.90,-0.33,4.56
3.479099,0.0835,-1.2407,0.1812,-1.71,8.00,-2.50,-66.76,-0.40,4.45
3.539669,0.0215,-1.2017,0.1777,-4.88,7.02,-1.53,-67.62,-0.42,4.39
3.539669,-0.0088,-1.1943,0.1768,-7.75,4.39,-4.94,-1.48,0.80,-0.02
3.599331,0.0317,-1.1924,0.2129,-11.60,3.72,-7.26,-1.71,0.87,-0.14
3.599331,0.0986,-1.2085,0.1924,-14.34,7.39,-3.66,-2.10,0.97,-0.26
3.601529,0.0503,-1.1646,0.1328,-13.00,10.13,1.04,-2.65,1.15,-0.29
3.601529,-0.0508,-1.1177,0.1567,-11.54,11.11,-1.83,-3.36,1.33,-0.29
3.661221,-0.0195,-1.1592,0.1865,-10.93,11.05,-9.22,-4.33,1.54,-0.43
3.661221,0.1221,-1.1084,0.2070,-13.43,6.90,-6.47,-5.59,1.69,-0.63
3.689410,0.1416,-1.0654,0.1914,-17.82,6.04,3.23,-7.19,1.74,-0.69
3.689410,0.0552,-1.0732,0.1357,-18.62,5.07,7.75,-9.10,1.77,-0.60
3.718355,-0.0112,-0.9897,0.1270,-19.29,1.83,6.96,-11.27,1.75,-0.49
3.718355,-0.0991,-0.9272,0.1387,-24.48,0.55,0.00,-13.71,1.71,-0.45
3.779593,-0.0996,-0.9307,0.1045,-33.33,-6.53,-11.90,-16.48,1.61,-0.60
3.779593,0.1030,-1.0488,0.0386,-36.74,-11.11,-17.46,-19.58,1.32,-0.90
3.808342,0.3071,-1.1333,-0.0522,-26.43,-9.46,-3.66,-22.82,0.93,-1.06
3.808342,0.3027,-1.1479,-0.0137,-8.61,-2.99,17.27,-25.94,0.62,-0.85
3.839145,0.2021,-1.0977,0.0400,6.53,6.04,33.51,-28.83,0.53,-0.34
3.839145,0.0376,-1.0166,0.1235,14.16,11.05,40.04,-31.53,0.69,0.30
3.899608,-0.0962,-0.8989,0.2271,7.75,7.20,34.79,-34.14,0.94,0.90
3.899608,-0.1567,-0.8550,0.2388,-6.41,2.50,24.41,-36.86,1.20,1.33
3.928749,-0.1602,-0.8857,0.1758,-16.66,-1.16,13.00,-39.72,1.41,1.58
3.928749,-0.0698,-0.9644,0.1499,-20.02,-2.14,6.23,-42.60,1.55,1.66
3.989197,0.0259,-0.9673,0.1284,-22.71,-0.79,7.57,-45.44,1.70,1.70
3.989197,-0.0083,-0.9448,0.1055,-23.19,-3.97,10.93,-48.21,1.87,1.79
4.018412,-0.0688,-0.9009,0.1621,-24.11,-5.13,7.75,-50.87,2.01,1.92
4.018412,-0.0898,-0.8760,0.1543,-24.66,-0.73,2.87,-53.40,2.16,1.93
4.049187,-0.1035,-0.9077,0.0938,-18.01,6.35,-2.75,-55.77,2.33,1.77
4.049187,-0.0483,-0.9473,0.0757,-8.30,9.22,-5.43,-57.83,2.51,1.45
4.109144,-0.0039,-0.9458,0.1567,-7.81,2.01,-3.78,-59.68,2.63,1.18
4.109144,0.0210,-0.8887,0.1738,-17.46,-5.00,-0.55,-61.52,2.66,1.09
4.138469,0.0640,-0.8638,0.1060,-25.70,-1.83,4.39,-63.42,2.69,1.10
4.138469,0.0645,-0.8882,-0.0229,-22.52,5.80,11.90,-65.30,2.85,1.09
4.169008,0.0176,-0.8604,-0.0474,-13.00,6.41,17.46,-66.96,3.13,1.07
4.169008,-0.0088,-0.8071,-0.0464,-9.95,3.66,21.18,-68.44,3.46,1.11
4.229248,-0.0815,-0.7480,-0.0234,-10.25,1.10,22.34,-69.83,3.83,1.20
4.229248,-0.1582,-0.6611,0.0098,-14.40,-2.32,18.86,-71.19,4.21,1.30
4.258457,-0.1973,-0.6348,-0.0479,-17.15,-1.65,12.39,-72.57,4.56,1.34
4.258457,-0.2275,-0.6221,-0.1392,-14.16,-4.03,4.15,-73.90,4.83,1.29
4.289248,-0.2334,-0.6567,-0.0674,-10.93,-7.93,-6.65,-75.11,4.98,1.21
4.289248,-0.1123,-0.7056,0.0020,-14.71,-10.13,-15.14,-76.28,4.94,1.10
4.349213,0.0518,-0.7695,-0.0068,-18.19,-8.12,-12.39,-77.49,4.81,1.03
4.349213,0.1201,-0.8125,-0.0723,-14.34,-2.56,-2.50,-1.49,0.77,-0.01
4.378407,0.1216,-0.7554,-0.1060,-6.04,4.70,10.38,-1.72,0.79,0.08
4.378407,0.0244,-0.7100,-0.1230,4.03,14.71,19.29,-1.83,0.97,0.39
4.409117,-0.0913,-0.6582,-0.1821,13.55,19.71,23.25,-1.84,1.32,0.82
4.409117,-0.2671,-0.5820,-0.1196,18.19,18.31,18.01,-1.81,1.72,1.25
4.469614,-0.3540,-0.5557,-0.0327,14.77,13.24,0.18,-1.91,2.10,1.42
4.469614,-0.2441,-0.6304,0.0474,8.36,8.61,-17.94,-2.25,2.48,1.20
4.498743,-0.0586,-0.6821,0.0693,-1.46,8.91,-21.79,-2.96,2.86,0.74
4.498743,0.0049,-0.7456,-0.0259,-4.39,11.47,-16.42,-4.04,3.27,0.31
4.529187,0.0200,-0.7144,-0.0679,-1.77,13.12,-10.93,-5.36,3.72,-0.03
4.529187,0.0518,-0.6445,-0.0010,-0.12,13.92,-4.64,-6.89,4.16,-0.29
4.589338,0.0225,-0.6929,0.0063,2.50,22.71,4.52,-8.62,4.66,-0.42
4.589338,-0.1621,-0.6987,-0.0132,6.84,33.39,7.32,-10.53,5.38,-0.50
4.618401,-0.2656,-0.7881,-0.0894,12.94,33.26,-4.58,-12.62,6.28,-0.77
4.618401,-0.2290,-0.7749,-0.0596,15.32,23.07,-23.56,-14.99,7.10,-1.46
4.649186,-0.1582,-0.8071,0.0615,6.04,10.19,-39.49,-17.73,7.62,-2.52
4.649186,0.0933,-0.9678,0.0864,-2.87,12.33,-44.19,-20.93,7.89,-3.81
4.709575,0.3462,-1.0806,-0.0981,2.62,21.36,-29.05,-24.46,8.05,-5.05
4.709575,0.4199,-1.1426,-0.2080,20.69,22.52,-2.32,-27.97,8.10,-5.91
4.738413,0.2715,-1.0200,-0.0605,31.86,16.36,24.11,-31.27,8.00,-6.22
4.738413,-0.0615,-0.8428,0.0771,24.29,11.54,32.53,-34.50,7.88,-6.12
4.769145,-0.2139,-0.8579,-0.0156,14.22,6.71,16.42,-37.81,7.76,-6.11
4.769145,-0.0430,-0.9155,-0.1455,12.08,-6.59,4.94,-41.18,7.45,-6.32
4.829358,-0.0161,-1.0117,-0.1182,15.08,-14.10,3.36,-44.45,6.93,-6.41
4.829358,-0.0850,-1.0391,-0.0518,19.23,-14.34,-1.83,-47.50,6.37,-6.47
4.859178,0.0127,-1.1152,-0.0850,27.95,-3.48,-6.84,-50.31,5.86,-6.66
4.859178,0.0693,-1.1333,-0.1411,43.76,0.12,-0.73,-52.72,5.45,-6.91
4.888910,-0.0371,-1.0737,-0.0049,53.59,-2.08,3.54,-54.67,5.12,-7.04
4.888910,-0.1782,-1.0098,0.2407,44.31,-8.85,-4.39,-56.35,4.77,-7.09
4.949270,-0.0732,-1.0630,0.2363,28.50,-8.54,-13.55,-58.05,4.32,-7.23
4.949270,0.0215,-1.1230,0.1572,19.59,-14.95,-14.10,-59.77,3.78,-7.32
4.978846,-0.0215,-1.0728,0.1670,13.24,-21.73,-9.89,-61.41,3.21,-7.22
4.978846,-0.1035,-1.0596,0.2227,7.93,-19.47,-12.33,-62.98,2.69,-7.02
5.009120,-0.0693,-1.1436,0.1792,8.54,-11.17,-16.72,-64.41,2.23,-7.00
5.009120,0.0239,-1.2139,0.2090,8.67,-9.95,-15.01,-65.67,1.81,-7.05
5.069210,0.0215,-1.1587,0.2769,-0.55,-12.51,-7.81,-66.87,1.46,-7.01
5.069210,-0.1221,-1.1382,0.2539,-8.85,-16.85,-10.19,-68.11,1.17,-6.84
5.098671,-0.0879,-1.1895,0.2124,-11.05,-12.63,-20.69,-69.34,0.81,-6.78
5.098671,0.0962,-1.2603,0.1045,-6.77,-8.85,-20.02,-70.45,0.38,-6.84
5.129184,0.1826,-1.2505,0.1035,1.16,-6.47,-6.16,-71.36,0.07,-6.82
5.129184,0.0674,-1.1538,0.1128,9.03,-7.45,4.64,-1.43,0.76,0.01
5.189539,-0.0581,-1.0645,0.2080,8.85,-6.65,0.61,-1.27,0.61,0.08
5.189539,0.0273,-1.1045,0.1836,2.75,-2.87,-4.82,-1.27,0.53,0.02
5.218381,0.0825,-1.1118,0.1099,-0.61,-4.09,1.10,-1.51,0.46,-0.02
5.218381,-0.0132,-1.0684,0.0938,0.06,-5.07,1.59,-1.96,0.36,0.03
5.249134,-0.0679,-1.0527,0.1152,-0.06,-6.77,-7.45,-2.61,0.22,-0.02
5.249134,0.0459,-1.1016,0.0513,1.71,-1.89,-12.45,-3.52,0.13,-0.23
5.309361,0.1392,-1.1792,0.0137,10.31,0.31,-5.98,-4.63,0.09,-0.41
5.309361,0.1074,-1.1196,0.1094,14.89,-0.85,2.99,-5.91,0.02,-0.40
5.338406,0.0259,-1.0254,0.2529,6.84,-4.15,3.97,-7.50,-0.12,-0.29
5.338406,0.0444,-1.0161,0.2524,-6.77,-1.53,3.23,-9.57,-0.26,-0.18
5.398619,0.0244,-1.0293,0.0854,-10.25,-1.34,4.39,-12.06,-0.35,-0.05
5.398619,-0.0190,-1.0264,0.0234,-6.59,-6.71,1.04,-14.74,-0.50,0.08
5.428426,-0.0161,-1.0386,0.0942,-2.69,-7.45,-3.97,-17.52,-0.72,0.15
5.428426,0.0811,-1.1089,0.0811,3.78,1.28,-3.23,-20.34,-0.84,0.15
5.459223,0.1108,-1.1060,0.0171,16.24,5.43,6.59,-23.10,-0.83,0.24
5.459223,-0.0527,-1.0386,0.1504,21.42,-0.85,6.16,-25.71,-0.82,0.46
5.518416,0.7983,-1.1147,0.5615,-2.56,5.49,33.08,-28.52,-0.80,0.81
5.518416,-0.2158,-0.9531,0.1582,-21.67,-25.39,55.73,-31.77,-0.90,2.06
5.548428,-0.3110,-1.0405,0.1318,-22.09,-12.57,25.33,-35.07,-0.88,3.01
5.548428,-0.3579,-0.9185,0.0938,-19.96,-9.03,0.00,-38.19,-0.74,3.38
5.578725,0.1572,-1.0586,0.1553,-21.30,-8.06,1.16,-41.19,-0.63,3.40
5.578725,-0.0986,-1.0347,0.0117,-13.00,-4.94,1.46,-44.02,-0.41,3.53
5.638461,0.0322,-1.0229,0.0425,-7.39,3.54,-0.43,-46.58,-0.13,3.47
5.638461,0.0068,-1.0200,0.0391,-3.23,0.85,2.75,-48.94,0.13,3.44
5.668489,-0.0566,-0.9731,0.1416,-3.42,1.28,1.71,-51.11,0.37,3.44
5.668489,-0.0381,-0.9844,0.1211,-6.04,1.65,-0.18,-53.18,0.60,3.37
5.700508,-0.0127,-1.0029,0.0693,-5.43,0.49,0.00,-55.14,0.79,3.31
5.700508,-0.0059,-0.9941,0.1001,-5.43,0.24,0.49,-56.96,0.95,3.26
5.759462,-0.0312,-0.9995,0.0728,-5.31,0.18,0.55,-58.68,1.10,3.22
5.759462,-0.0312,-1.0063,0.0513,-3.30,0.12,0.12,-60.28,1.24,3.19
5.788456,-0.0293,-1.0112,0.0342,-0.92,0.00,-0.49,-61.75,1.35,3.14
5.788456,-0.0103,-1.0117,0.0410,1.89,0.00,0.00,-63.08,1.44,3.10
5.818481,-0.0498,-1.0029,0.0620,3.36,-0.06,-0.85,-64.28,1.53,3.07
5.818481,-0.0498,-0.9956,0.0771,3.91,-1.04,-2.32,-65.38,1.59,3.02
5.878381,-0.0073,-0.9995,0.0835,3.97,-3.42,-1.95,-66.40,1.61,3.02
5.878381,0.0083,-1.0112,0.0479,5.62,-2.32,-1.34,-67.34,1.62,3.03
5.909708,0.0044,-1.0107,0.0557,8.24,-2.26,0.31,-68.16,1.63,3.05
5.909708,-0.0503,-1.0054,0.0596,10.25,-0.73,-0.85,-68.88,1.65,3.08
5.938459,-0.0190,-1.0166,0.0229,13.79,-1.65,-1.53,-69.51,1.65,3.07
5.938459,-0.0156,-1.0327,0.0190,16.17,-5.19,-3.85,-1.44,0.77,0.00
5.999653,0.0493,-1.2480,0.1685,16.30,0.06,-7.14,-1.14,0.70,-0.12
5.999653,0.2222,-1.2461,0.1997,11.96,1.22,6.65,-0.99,0.73,-0.15
6.028434,0.1226,-1.2700,0.1753,9.22,-0.92,24.11,-1.08,0.69,0.18
6.028434,-0.0952,-1.2261,0.1226,8.18,-2.01,27.16,-1.40,0.61,0.73
6.058848,-0.1787,-1.2285,0.1221,8.24,0.49,17.88,-1.98,0.59,1.18
6.058848,-0.1284,-1.2598,0.1792,4.64,-1.71,10.68,-2.86,0.63,1.46
6.118572,-0.0537,-1.3076,0.2627,-1.95,-0.98,10.01,-4.15,0.66,1.66
6.118572,-0.0649,-1.2690,0.2510,-9.46,1.53,12.15,-5.91,0.78,1.88
6.148538,-0.1353,-1.2676,0.1387,-12.08,3.91,9.03,-8.08,0.98,2.09
6.148538,-0.1738,-1.2534,0.0664,-5.31,5.86,1.53,-10.49,1.27,2.16
6.178459,-0.1582,-1.1875,0.0967,0.85,7.87,-5.13,-12.99,1.63,2.06
6.178459,-0.0732,-1.1758,0.1377,3.23,10.62,-8.54,-15.58,2.02,1.81
6.238474,-0.0527,-1.1172,0.1909,3.36,15.32,-6.35,-18.26,2.48,1.52
6.238474,-0.0791,-1.1284,0.2529,-1.71,18.55,-7.26,-21.04,2.97,1.19
6.268491,-0.0269,-1.1118,0.2549,-9.77,18.01,-8.79,-23.99,3.44,0.77
6.268491,0.0083,-1.0977,0.2314,-21.12,13.61,-6.23,-27.12,3.78,0.36
6.298785,0.0312,-1.1099,0.1641,-29.97,10.50,-2.01,-30.39,4.00,0.05
6.298785,0.0195,-1.0381,0.1538,-35.89,10.56,4.09,-33.72,4.17,-0.16
6.360193,-0.0361,-1.0654,0.1279,-39.37,11.72,5.86,-37.05,4.36,-0.30
6.360193,-0.0205,-1.1519,0.0693,-37.72,13.06,4.64,-40.30,4.55,-0.50
6.388483,0.0347,-1.0996,0.0156,-33.63,8.61,8.12,-43.40,4.69,-0.66
6.388483,0.0010,-1.0342,0.0488,-31.25,4.09,15.26,-46.32,4.78,-0.67
6.418537,-0.0981,-0.9878,0.0757,-31.13,5.31,17.82,-49.08,4.94,-0.58
6.418537,-0.1895,-0.9580,0.0625,-29.42,12.39,11.17,-51.70,5.20,-0.63
6.478898,-0.2109,-1.0264,-0.0015,-22.77,13.79,0.00,-54.14,5.48,-0.95
6.478898,-0.1157,-1.0518,-0.1230,-11.60,10.25,-7.08,-56.32,5.60,-1.38
6.509713,-0.1221,-1.0088,0.0322,-2.38,2.69,-10.62,-58.17,5.59,-1.76
6.509713,-0.1216,-0.9512,0.1157,-5.19,7.26,-18.13,-59.86,5.47,-2.18
6.539581,-0.0771,-0.9917,0.0967,-8.30,9.89,-24.17,-61.52,5.27,-2.74
6.539581,-0.0293,-0.8994,0.0918,-12.94,6.10,-25.27,-63.14,4.97,-3.28
6.631201,0.0083,-0.8442,0.0991,-22.83,2.20,-22.09,-64.79,4.60,-3.71
6.631201,0.0273,-0.8457,0.0654,-32.10,-3.42,-17.40,-66.54,4.21,-3.96
6.631339,0.0522,-0.8970,0.0259,-36.32,-7.32,-11.96,-68.35,3.84,-4.03
6.631339,0.0962,-0.9790,-0.0283,-32.35,-5.00,-6.41,-70.09,3.52,-4.00
6.661953,0.1113,-0.9785,-0.0664,-23.32,-1.95,0.73,-71.64,3.28,-3.94
6.661953,0.1001,-0.9468,-0.0693,-12.15,1.77,9.03,-72.93,3.18,-3.85
6.719359,0.0811,-0.9331,-0.0078,-3.97,8.54,14.28,-73.98,3.21,-3.80
6.719359,0.0693,-0.9170,0.0146,1.34,11.90,17.64,-74.84,3.35,-3.83
6.748481,0.0444,-0.8052,0.0371,-1.77,6.77,21.67,-75.62,3.53,-3.82
6.748481,0.0171,-0.7144,0.0688,-12.57,4.33,26.98,-1.46,0.78,0.00
6.810201,-0.0620,-0.7065,-0.0117,-22.22,5.25,27.95,-1.84,0.88,0.56
6.810201,-0.1099,-0.7236,-0.0962,-24.72,0.85,21.61,-2.41,0.97,1.06
6.838583,-0.0508,-0.7417,-0.0703,-23.07,-2.99,15.75,-3.07,0.96,1.42
6.838583,0.0039,-0.6714,-0.0771,-23.38,-1.34,16.66,-3.84,0.96,1.73
6.869417,-0.0371,-0.6411,-0.1387,-22.34,-1.04,21.18,-4.76,0.98,2.11
6.869417,-0.1001,-0.6318,-0.1626,-17.64,1.95,22.46,-5.78,1.06,2.56
6.929326,-0.1362,-0.6294,-0.1738,-12.21,4.52,18.43,-6.89,1.25,2.96
6.929326,-0.1426,-0.6123,-0.1758,-9.77,5.37,15.32,-8.12,1.53,3.27
6.960318,-0.1670,-0.6182,-0.1626,-9.64,3.97,11.23,-9.55,1.86,3.50
6.960318,-0.1401,-0.6445,-0.1675,-10.13,3.97,6.04,-11.22,2.22,3.62
6.989335,-0.1118,-0.6133,-0.1919,-9.95,3.30,6.77,-13.14,2.64,3.67
6.989335,-0.1504,-0.5688,-0.1968,-11.78,5.07,9.83,-15.33,3.13,3.75
7.049267,-0.2236,-0.5928,-0.2705,-8.91,9.77,8.67,-17.74,3.77,3.78
7.049267,-0.2979,-0.6328,-0.3130,1.34,10.19,1.28,-20.28,4.57,3.66
7.078552,-0.2754,-0.6870,-0.2700,12.70,9.40,-9.95,-22.87,5.43,3.28
7.078552,-0.1899,-0.6396,-0.1670,17.94,8.48,-14.28,-25.55,6.27,2.66
7.110027,-0.1650,-0.6504,-0.1060,19.10,13.92,-12.94,-28.36,7.15,1.96
7.110027,-0.1768,-0.6724,-0.1060,20.69,18.37,-12.51,-31.31,8.11,1.14
7.169544,-0.1943,-0.7061,-0.0669,20.94,15.44,-17.03,-34.37,9.02,0.20
7.169544,-0.1035,-0.6768,-0.0176,15.01,7.08,-18.49,-37.57,9.73,-0.82
7.198912,-0.0698,-0.7930,-0.0190,2.93,3.05,-14.10,-40.99,10.21,-1.72
7.198912,-0.0645,-0.7871,-0.0098,-7.45,1.16,-15.32,-44.65,10.52,-2.58
7.228165,0.0151,-0.7705,-0.0317,-13.31,1.53,-14.28,-48.44,10.67,-3.38
7.228165,0.0908,-0.8213,-0.1680,-6.10,4.21,-8.42,-52.17,10.68,-4.10
7.289371,0.0737,-0.8638,-0.2871,14.10,7.75,4.09,-55.60,10.68,-4.67
7.289371,-0.0713,-0.8374,-0.3164,37.41,10.01,11.96,-58.54,10.78,-5.13
7.318475,-0.1792,-0.9136,-0.1943,53.47,10.93,2.50,-60.99,10.84,-5.61
7.318475,-0.1387,-0.8662,-0.0078,54.75,14.34,-12.94,-63.13,10.70,-6.31
7.349785,-0.0645,-0.8242,0.0454,42.42,5.55,-21.00,-65.17,10.26,-7.01
7.349785,-0.0347,-0.8926,0.0737,26.86,-4.39,-24.72,-67.21,9.57,-7.47
7.410583,0.0288,-0.9722,0.0239,16.42,-8.61,-28.38,-69.27,8.68,-7.70
7.410583,0.1450,-1.0356,-0.0742,14.16,-11.72,-25.09,-71.25,7.66,-7.74
7.438394,0.1533,-1.0562,-0.0811,16.72,-17.94,-14.10,-73.03,6.64,-7.45
7.438394,0.0312,-1.0298,-0.0684,18.98,-21.12,-6.65,-74.58,5.73,-6.90
7.469302,0.0166,-1.0796,-0.1177,24.29,-17.94,-7.26,-75.92,4.91,-6.28
7.469302,0.1743,-1.2305,-0.1973,40.04,-13.06,0.00,-76.93,4.16,-5.70
7.529315,0.1636,-1.1797,-0.1675,54.87,-17.09,15.99,-77.50,3.61,-4.98
7.529315,-0.0151,-1.1011,0.0298,57.07,-28.87,22.22,-77.76,3.28,-3.99
7.558511,-0.1470,-1.0967,0.2104,47.18,-30.76,14.34,-77.94,3.00,-2.93
7.558511,-0.1362,-1.1421,0.1138,41.99,-26.79,4.82,-78.15,2.68,-2.05
7.589265,-0.0439,-1.3120,0.0947,49.13,-22.77,-2.56,-0.60,0.32,0.00
7.589265,0.0024,-1.2212,0.3008,47.49,-28.02,1.89,0.36,-0.18,-0.03
7.649724,-0.1382,-1.1328,0.4419,29.97,-26.49,2.44,0.99,-0.74,0.01
7.649724,-0.2412,-1.1143,0.2690,16.97,-27.10,-8.18,1.16,-1.25,-0.04
7.678399,-0.1802,-1.1475,0.2734,10.07,-26.67,-25.57,0.99,-1.74,-0.40
7.678399,0.0396,-1.2065,0.2192,4.70,-23.80,-27.77,0.46,-2.14,-0.97
7.710678,0.1050,-1.3125,0.1294,12.33,-16.91,-16.91,-0.31,-2.43,-1.37
7.710678,0.0522,-1.2617,0.0938,25.15,-13.67,-8.73,-1.18,-2.65,-1.54
7.769689,0.0059,-1.1807,0.2847,25.21,-14.65,-8.48,-2.26,-2.91,-1.60
7.769689,0.0503,-1.1665,0.3540,14.16,-11.54,-5.37,-3.78,-3.15,-1.62
7.798801,-0.0249,-1.1885,0.2715,9.83,-10.56,-2.01,-5.72,-3.36,-1.51
7.798801,-0.0723,-1.1724,0.2705,7.20,-8.48,-7.20,-7.95,-3.53,-1.40
7.829229,-0.0420,-1.1426,0.3008,0.98,-8.18,-12.27,-10.46,-3.67,-1.38
7.829229,-0.0386,-1.0605,0.2617,-7.63,-9.34,-15.75,-13.26,-3.80,-1.41
7.889312,0.9683,-1.0542,0.5278,-31.25,13.92,17.70,-16.40,-3.63,-1.33
7.889312,0.1245,-1.1387,-0.0586,-34.48,-34.73,68.91,-20.31,-3.71,0.04
7.921185,-0.5430,-0.9678,0.0610,-19.17,-6.53,29.66,-24.03,-3.99,1.50
7.921185,-0.2876,-0.8682,0.3042,-19.29,1.77,5.37,-27.38,-3.79,2.04
7.951158,-0.2471,-0.8774,0.3130,-31.74,2.26,-5.00,-30.66,-3.44,2.19
7.951158,-0.2134,-0.9312,0.1875,-36.25,7.93,-19.04,-33.89,-3.04,2.03
8.010715,0.3545,-1.1152,0.0244,-40.16,2.75,-17.03,-37.02,-2.63,1.62
8.010715,-0.1934,-1.0991,-0.3350,-16.97,-2.38,8.91,-39.89,-2.18,1.77
8.038493,0.1812,-1.0820,-0.1045,-0.37,3.17,2.20,-42.39,-1.94,1.89
8.038493,-0.0732,-1.0200,0.0107,5.74,5.37,-0.24,-44.60,-1.65,1.98
8.069293,-0.0093,-1.0083,0.0391,9.34,4.82,-1.83,-46.61,-1.41,1.96
8.069293,-0.0371,-0.9702,0.1470,6.84,1.22,-1.04,-48.49,-1.22,1.98
8.129290,-0.0615,-0.9658,0.1670,2.26,0.73,-0.79,-50.31,-1.05,2.03
8.129290,-0.0195,-0.9902,0.1240,0.79,0.06,-1.10,-52.05,-0.90,2.06
8.158586,-0.0234,-0.9893,0.1162,0.24,-0.24,-0.98,-53.70,-0.74,2.09
8.158586,-0.0054,-0.9951,0.1021,0.55,-0.18,-0.37,-55.23,-0.60,2.11
8.219974,-0.0322,-0.9785,0.1353,-0.85,-0.06,-0.31,-56.69,-0.46,2.15
8.219974,-0.0083,-0.9937,0.0972,-2.50,0.12,-0.37,-58.09,-0.34,2.17
8.248535,-0.0146,-1.0029,0.0786,-1.40,-1.34,0.24,-59.41,-0.23,2.21
8.248535,-0.0039,-0.9961,0.1074,-1.28,-0.85,-0.37,-60.64,-0.13,2.25
8.279835,-0.0229,-1.0078,0.0610,-0.18,-1.16,0.06,-61.81,-0.04,2.29
8.279835,-0.0308,-0.9937,0.0938,1.40,-0.55,-0.49,-62.87,0.03,2.33
8.339279,-0.0171,-0.9961,0.0957,1.04,-0.55,-0.61,-63.87,0.10,2.36
8.339279,-0.0303,-1.0059,0.0635,1.95,-1.04,-0.55,-63.84,0.08,2.37
8.368541,-0.0312,-1.0098,0.0635,4.70,-2.08,-0.73,-63.84,0.07,2.39
8.368541,-0.0483,-1.0034,0.0840,6.16,-0.73,-3.36,-63.85,0.03,2.40
8.399434,-0.0303,-1.0166,0.0513,8.73,-2.93,-3.30,-1.32,0.76,-0.06
8.399434,-0.0757,-1.0420,0.0610,12.08,-4.94,-6.59,-1.14,0.67,-0.15
8.460894,-0.0908,-1.1069,0.1426,11.72,0.43,-15.81,-1.02,0.62,-0.38
8.460894,0.1309,-1.1982,0.1890,6.59,4.09,-13.00,-1.08,0.71,-0.70
8.488552,0.1582,-1.2217,0.2534,-3.91,-1.95,0.61,-1.47,0.74,-0.81
8.488552,0.0171,-1.1880,0.2515,-17.33,-5.49,7.39,-2.37,0.63,-0.71
8.520004,0.0000,-1.2344,0.0762,-21.18,-1.10,7.63,-3.75,0.52,-0.55
8.520004,0.0312,-1.2979,-0.0107,-7.87,1.65,13.55,-5.31,0.51,-0.34
8.579270,-0.0283,-1.2573,0.0864,-2.14,3.17,17.94,-7.04,0.55,-0.01
8.579270,-0.0488,-1.2642,0.1157,-3.78,6.35,16.78,-9.07,0.66,0.34
8.608360,-0.1191,-1.2759,0.0552,-3.05,9.52,12.02,-11.41,0.87,0.60
8.608360,-0.1133,-1.2437,0.0869,-2.50,10.62,5.00,-13.98,1.16,0.71
8.639343,-0.0952,-1.2471,0.1343,-5.68,13.24,0.06,-16.79,1.51,0.66
8.639343,-0.1260,-1.2749,0.0938,-5.25,13.18,-4.88,-19.78,1.90,0.48
8.699441,-0.1191,-1.2407,0.1436,-5.19,12.02,-11.17,-22.84,2.22,0.16
8.699441,-0.0723,-1.2002,0.2046,-9.28,17.70,-16.30,-25.97,2.55,-0.32
8.728503,-0.1377,-1.2388,0.0859,-10.93,28.14,-24.54,-29.15,2.99,-1.03
8.728503,-0.0103,-1.1538,0.1860,-12.94,24.29,-29.66,-32.28,3.31,-1.93
8.759239,0.0869,-1.1055,0.1973,-25.70,19.90,-25.15,-35.48,3.50,-2.81
8.759239,0.0928,-1.0801,0.1182,-36.80,10.13,-17.70,-38.77,3.51,-3.47
8.819311,0.0762,-1.0776,0.0186,-40.77,4.58,-11.41,-42.05,3.35,-3.89
8.819311,0.0874,-1.0679,-0.0781,-39.49,1.53,-6.41,-45.23,3.13,-4.14
8.848551,0.1138,-1.0918,-0.1558,-30.33,0.18,0.18,-48.18,2.89,-4.24
8.848551,0.1289,-1.0894,-0.1353,-17.40,-1.40,8.79,-50.81,2.71,-4.19
8.879283,0.1455,-1.1025,0.0010,-11.17,-0.73,16.48,-53.17,2.61,-3.99
8.879283,0.1240,-1.0405,0.1074,-13.43,0.43,24.66,-55.38,2.63,-3.71
8.939331,-0.0034,-1.0015,0.1211,-19.84,-2.99,27.95,-57.52,2.69,-3.30
8.939331,-0.1089,-0.9897,0.0552,-22.89,0.18,22.03,-59.62,2.76,-2.92
8.968532,-0.2129,-0.9536,-0.0894,-16.11,1.83,12.15,-61.55,2.82,-2.74
8.968532,-0.1948,-0.9722,-0.1143,-4.76,0.31,-1.22,-63.22,2.79,-2.74
8.999576,-0.0361,-0.9727,0.0010,3.78,-3.17,-7.02,-64.59,2.68,-2.83
8.999576,0.0537,-0.9380,0.0811,2.50,-2.81,-5.19,-65.82,2.57,-2.92
9.059260,0.0264,-0.8799,0.0898,-0.79,-1.53,-2.01,-67.01,2.49,-2.99
9.059260,-0.0488,-0.7915,0.0874,-4.33,-6.35,-2.62,-68.16,2.40,-2.98
9.089804,-0.0723,-0.7061,0.1240,-16.17,-12.21,-7.14,-69.39,2.21,-2.88
9.089804,0.0405,-0.7510,0.0352,-27.47,-10.62,-6.59,-70.80,1.99,-2.76
9.118530,0.0825,-0.8608,-0.1724,-16.17,-5.00,2.01,-72.15,1.90,-2.69
9.118530,0.0747,-0.9487,-0.1489,7.51,-5.19,11.78,-73.07,1.97,-2.56
9.179248,0.0063,-0.8667,0.0649,17.15,0.00,18.55,-73.61,2.20,-2.41
9.179248,-0.0991,-0.8140,0.1509,10.38,3.66,16.17,-74.12,2.48,-2.33
9.208536,-0.1230,-0.8608,0.1055,5.49,3.05,9.40,-1.35,0.83,0.20
9.208536,-0.0376,-0.9277,0.0845,5.49,0.61,4.39,-1.26,0.87,0.32
9.239360,0.0659,-0.9229,0.0894,2.26,0.00,9.34,-1.28,0.88,0.44
9.239360,0.0410,-0.9331,0.0571,0.00,2.44,18.37,-1.48,0.91,0.74
9.299611,-0.1328,-0.8672,0.0078,0.55,4.70,15.87,-1.84,0.99,1.10
9.299611,-0.2319,-0.8188,0.0605,-5.68,-2.01,2.69,-2.46,1.04,1.29
9.328379,-0.1538,-0.7998,0.0620,-17.64,-10.25,-10.19,-3.46,0.98,1.19
9.328379,-0.0396,-0.8516,0.0020,-27.34,-19.53,-16.91,-4.91,0.76,0.92
9.359234,0.0879,-0.8643,-0.0728,-30.46,-19.47,-13.43,-6.74,0.48,0.63
9.359234,0.1226,-0.8433,-0.1646,-25.82,-15.32,-3.72,-8.82,0.24,0.51
9.419602,0.0669,-0.8032,-0.2310,-14.53,-11.23,4.03,-11.03,0.05,0.58
9.419602,0.0142,-0.7124,-0.1895,-3.23,-6.71,8.61,-13.28,-0.07,0.78
9.448544,-0.0464,-0.6436,-0.1074,3.54,-2.38,11.23,-15.60,-0.11,1.05
9.448544,-0.1411,-0.5767,-0.0425,5.13,1.95,8.91,-18.02,-0.03,1.30
9.479326,-0.2007,-0.5371,-0.0034,5.07,5.31,2.08,-20.56,0.15,1.42
9.479326,-0.1919,-0.5327,0.0825,-1.28,1.89,-7.93,-23.24,0.38,1.36
9.539381,-0.0693,-0.5728,0.0908,-16.05,0.67,-11.90,-26.23,0.60,1.14
9.539381,0.0078,-0.6377,-0.0693,-24.84,4.52,-7.75,-29.52,0.87,0.90
9.568495,0.0181,-0.6641,-0.2573,-18.43,10.56,-0.85,-32.90,1.29,0.69
9.568495,-0.0312,-0.6436,-0.2651,-6.59,11.90,3.05,-36.21,1.76,0.53
9.629292,-0.1182,-0.6431,-0.1694,1.71,11.54,1.77,-39.44,2.21,0.36
9.629292,-0.1685,-0.6348,-0.1030,5.74,14.28,-1.40,-42.61,2.65,0.09
9.689399,-0.2354,-0.6162,-0.0244,9.40,18.25,-8.67,-45.71,3.12,-0.36
9.689399,-0.1978,-0.5791,0.0425,6.04,18.80,-19.41,-48.76,3.55,-1.07
9.691642,-0.1382,-0.6509,0.0776,-2.62,12.94,-27.71,-51.84,3.83,-1.91
9.691642,-0.0708,-0.7236,0.1099,-14.22,8.00,-34.79,-55.00,3.91,-2.77
9.749368,0.0850,-0.8301,0.0303,-23.07,12.39,-35.89,-58.24,3.86,-3.69
9.749368,0.1489,-0.9160,-0.0981,-21.61,14.83,-28.44,-61.44,3.76,-4.54
9.779474,0.1455,-0.9727,-0.1528,-9.16,21.24,-21.06,-64.41,3.63,-5.28
9.779474,0.0947,-1.0034,-0.1382,5.80,23.50,-16.36,-67.03,3.45,-5.96
9.809238,0.0635,-0.9702,-0.0415,14.10,25.21,-14.83,-69.32,3.18,-6.56
9.809238,0.0688,-0.9644,0.0088,16.24,29.36,-17.46,-71.37,2.82,-7.17
9.869347,0.1562,-0.9756,-0.0283,11.90,24.35,-16.85,-73.26,2.36,-7.73
9.869347,0.2451,-1.0527,-0.1079,10.56,20.51,-7.63,-75.05,1.88,-8.10
9.898786,0.2451,-1.0820,-0.1270,14.53,20.87,2.62,-76.64,1.46,-8.28
9.898786,0.2300,-1.0278,-0.1489,16.91,20.69,13.55,-78.04,1.14,-8.33
9.931294,0.1343,-1.0088,-0.2388,22.40,21.00,23.13,-79.23,0.97,-8.28
9.931294,-0.0312,-0.9795,-0.3032,29.66,13.61,22.09,-80.18,0.86,-8.16
9.989338,-0.0820,-0.9858,-0.1650,31.43,1.40,10.13,-80.96,0.64,-7.89
9.989338,0.0361,-1.0176,-0.0264,24.11,-1.16,1.71,-81.72,0.30,-7.61
10.018472,0.1333,-1.1172,-0.1465,23.01,-4.03,6.84,-1.12,0.74,0.06
10.018472,0.0923,-1.1763,-0.1235,29.24,-3.97,12.82,-0.64,0.65,0.27
10.049314,0.1084,-1.1558,-0.0342,31.80,-4.70,16.72,-0.16,0.55,0.57
10.049314,0.0742,-1.1035,0.0615,26.79,-10.01,21.61,0.13,0.36,0.95
10.109352,-0.0024,-1.0532,0.0488,18.25,-11.54,23.68,0.08,0.10,1.41
10.109352,-0.0962,-1.0474,-0.0176,16.24,-16.42,20.87,-0.31,-0.24,1.87
10.138589,-0.1099,-1.0918,-0.0425,19.90,-16.72,13.00,-0.93,-0.59,2.22
10.138589,-0.0552,-1.1401,0.0010,28.81,-16.66,8.42,-1.69,-0.90,2.46
10.169284,-0.0918,-1.0605,0.1138,29.17,-16.24,6.77,-2.64,-1.18,2.66
10.169284,-0.1914,-1.0562,0.1284,22.71,-15.93,-0.61,-3.97,-1.42,2.81
10.229240,-0.0938,-1.1841,0.0366,22.03,-11.41,-8.79,-5.65,-1.54,2.78
10.229240,0.0337,-1.2715,0.0220,30.52,-10.25,-5.86,-7.51,-1.55,2.72
10.258588,0.0034,-1.2305,0.0513,36.50,-11.35,-0.55,-9.51,-1.57,2.80
10.258588,0.0010,-1.2134,0.1880,36.32,-11.72,-0.18,-11.70,-1.64,2.94
10.289378,0.1089,-1.2222,0.2349,29.42,-7.93,6.29,-14.11,-1.65,3.16
10.289378,0.0391,-1.1821,0.1909,22.95,-9.77,15.32,-16.75,-1.63,3.57
10.349665,-0.1084,-1.1421,0.1646,19.04,-9.89,11.60,-19.52,-1.65,4.06
10.349665,-0.1313,-1.1265,0.2124,15.99,-9.46,3.11,-22.33,-1.66,4.42
10.378573,-0.0171,-1.1812,0.1821,12.88,-3.91,-0.31,-25.11,-1.58,4.60
10.378573,0.0586,-1.2036,0.0854,17.76,-3.91,8.24,-27.78,-1.39,4.81
10.409149,-0.0615,-1.1133,0.1504,24.29,-2.14,11.96,-30.24,-1.16,5.16
10.409149,-0.1426,-0.9922,0.2637,19.78,-2.38,6.35,-32.55,-0.94,5.46
10.469341,-0.1528,-0.9766,0.2617,9.89,-2.14,-2.81,-34.85,-0.76,5.59
10.469341,-0.0776,-1.0430,0.2158,6.04,-0.55,-8.48,-37.10,-0.59,5.54
10.498909,-0.0151,-1.0854,0.2144,6.29,1.28,-7.63,-39.20,-0.39,5.40
10.498909,-0.0342,-1.0679,0.2437,2.32,1.65,-5.92,-41.21,-0.19,5.28
10.529348,-0.0166,-1.1108,0.1680,-0.31,1.89,-7.02,-43.18,-0.03,5.17
10.529348,0.0342,-1.1230,0.1489,4.09,3.60,-3.60,-44.99,0.13,5.05
10.589354,-0.0386,-1.0420,0.1890,4.46,3.72,-1.77,-46.66,0.28,4.99
10.589354,-0.1021,-1.0161,0.2163,1.77,2.08,-7.57,-48.26,0.36,4.92
10.618651,0.0142,-1.0503,0.2466,-2.32,1.77,-11.05,-49.81,0.36,4.77
10.618651,0.1431,-1.1172,0.2427,-5.31,2.44,-2.99,-51.33,0.38,4.65
10.649397,0.0498,-1.0601,0.1758,-6.10,2.50,6.47,-52.80,0.48,4.70
10.649397,-0.0771,-1.0103,0.1074,-2.75,2.08,4.09,-54.17,0.56,4.82
10.709200,-0.0493,-0.9814,0.1245,0.67,1.83,-0.55,-55.39,0.58,4.88
10.709200,-0.0063,-1.0024,0.1597,2.14,1.71,-1.46,-56.49,0.58,4.89
10.738577,0.0454,-0.9912,0.2285,-3.30,-1.40,1.34,-57.56,0.58,4.93
10.738577,-0.0068,-0.9946,0.1558,-8.54,-2.08,3.78,-58.71,0.59,5.07
10.769382,-0.0444,-0.9995,0.0762,-4.27,-1.71,1.46,-59.79,0.59,5.20
10.769382,-0.0425,-1.0361,0.0679,3.48,-1.22,-0.55,-60.69,0.57,5.28
10.829289,-0.0054,-1.0532,0.1606,7.57,-1.71,-0.49,-1.35,0.76,-0.01
10.829289,-0.0215,-1.0757,0.2129,4.33,-2.81,0.73,-1.26,0.71,-0.01
10.858648,-0.0337,-1.1216,0.2236,1.59,-3.36,0.37,-1.32,0.65,0.01
10.858648,-0.0356,-1.1650,0.2427,-1.71,-2.08,0.24,-1.57,0.60,0.01
10.889306,-0.0850,-1.1802,0.2222,-5.25,-2.44,-1.53,-2.07,0.57,0.01
10.889306,-0.1064,-1.2100,0.2266,-9.28,-1.71,-6.90,-2.88,0.54,-0.07
10.949440,-0.0659,-1.2563,0.1807,-11.60,1.89,-10.80,-4.04,0.59,-0.26
10.949440,-0.0542,-1.3066,0.1294,-9.77,2.32,-11.72,-5.50,0.68,-0.48
10.978563,-0.0322,-1.3188,0.1689,-7.75,5.62,-13.67,-7.25,0.81,-0.75
10.978563,0.0615,-1.3730,0.2358,-12.82,4.94,-14.40,-9.37,0.97,-1.05
11.039386,0.1699,-1.3574,0.2905,-22.46,1.04,-5.86,-11.94,1.03,-1.28
11.039386,0.1211,-1.2798,0.2437,-31.62,4.70,5.37,-14.96,1.07,-1.29
11.068592,-0.0024,-1.2422,0.2114,-37.90,11.96,9.09,-18.33,1.16,-1.17
11.068592,-0.1279,-1.1006,0.0054,-39.25,11.66,4.46,-21.90,1.36,-1.12
11.099674,-0.1484,-1.2080,-0.1240,-21.85,16.05,-5.68,-25.36,1.55,-1.26
11.099674,-0.1255,-1.2251,-0.1289,3.78,14.28,-15.62,-28.42,1.74,-1.64
11.159361,-0.0679,-1.1201,-0.0054,20.14,10.93,-21.36,-31.07,1.84,-2.17
11.159361,0.0063,-1.0820,0.0181,26.98,15.44,-23.13,-33.49,1.91,-2.78
11.188624,0.0151,-1.0425,-0.0396,38.09,23.62,-21.06,-35.63,2.03,-3.45
11.188624,-0.0669,-1.0596,-0.0078,54.26,23.44,-21.55,-37.40,2.21,-4.17
11.219383,0.0659,-1.1328,0.2031,54.14,7.51,-28.44,-38.85,2.15,-4.86
11.219383,0.2598,-1.0122,0.4590,27.59,-5.86,-23.38,-40.46,1.77,-5.36
11.279376,0.3252,-0.8926,0.5425,-9.46,-4.33,-1.95,-42.51,1.35,-5.50
11.279376,0.1953,-0.8628,0.3711,-39.92,2.20,19.47,-45.02,1.16,-5.28
11.308577,0.0327,-0.9453,0.1919,-51.70,6.41,24.11,-47.76,1.14,-4.89
11.308577,0.0532,-1.1685,0.0889,-40.41,-0.92,20.81,-50.34,1.12,-4.53
11.339358,0.1055,-1.0156,0.1479,-32.53,-10.19,24.54,-52.64,1.03,-4.04
11.339358,0.0713,-0.9663,0.2046,-34.61,-7.26,31.49,-54.82,1.03,-3.43
11.399037,-0.0083,-0.9468,0.1338,-35.28,0.67,34.18,-56.93,1.22,-2.89
11.399037,-0.1221,-0.8945,0.0654,-30.58,5.98,31.80,-58.92,1.55,-2.49
11.429157,-0.1948,-0.9648,0.0337,-18.98,4.58,21.36,-60.66,1.90,-2.27
11.429157,-0.0996,-0.9683,0.0757,-9.70,-3.42,10.38,-62.12,2.10,-2.14
11.458669,0.0161,-0.8838,0.1431,-10.31,-9.70,11.78,-63.43,2.21,-1.98
11.458669,-0.0322,-0.8467,0.1382,-15.87,-6.04,15.44,-64.74,2.41,-1.75
11.518576,-0.0977,-0.8750,0.0874,-17.88,-2.26,10.44,-66.07,2.62,-1.61
11.518576,-0.0264,-0.8828,0.0127,-13.92,-4.15,7.81,-67.31,2.79,-1.57
11.548567,0.0083,-0.8989,0.0254,-7.87,-7.63,10.25,-68.40,2.95,-1.45
11.548567,0.0020,-0.8345,0.0410,-5.68,-8.36,13.79,-69.36,3.14,-1.26
11.579095,-0.0493,-0.8110,0.0498,-3.72,-0.98,14.34,-70.25,3.38,-1.11
11.579095,-0.0425,-0.8462,0.0332,3.11,3.23,13.31,-71.01,3.66,-1.10
11.638550,0.0176,-0.8511,0.1221,7.20,2.14,17.46,-1.37,0.81,0.19
11.638550,-0.0156,-0.7573,0.2065,-5.31,-0.67,23.44,-1.36,0.81,0.62
11.668791,-0.1392,-0.7437,0.1431,-16.72,0.73,22.52,-1.69,0.81,1.09
11.668791,-0.2656,-0.7017,0.0273,-16.72,0.61,10.25,-2.22,0.85,1.43
11.700875,-0.3403,-0.7261,-0.0068,-13.85,0.61,-11.72,-2.83,0.92,1.41
11.700875,-0.1250,-0.9165,0.0239,-6.96,-8.12,-28.69,-3.50,0.96,0.97
11.759325,0.2310,-0.9575,0.1768,-14.10,-10.86,-18.68,-4.36,0.90,0.46
11.759325,0.3003,-0.9980,0.0630,-24.17,-6.16,6.29,-5.70,0.84,0.36
11.788620,0.1035,-0.9497,-0.0757,-18.43,-2.69,22.95,-7.37,0.80,0.69
11.788620,-0.0933,-0.8354,-0.0635,-12.45,-0.55,24.23,-9.27,0.79,1.20
11.818656,-0.1421,-0.7988,-0.0527,-9.77,-1.16,18.74,-11.35,0.83,1.63
11.818656,-0.1426,-0.7998,-0.0112,-9.09,-5.92,14.10,-13.65,0.88,1.97
11.881018,-0.1050,-0.7622,0.0381,-11.47,-4.64,11.54,-16.18,0.97,2.23
11.881018,-0.1191,-0.7637,0.0195,-12.21,-4.39,10.25,-18.95,1.14,2.46
11.908589,-0.1411,-0.7095,0.0249,-13.31,-3.60,9.22,-21.88,1.38,2.64
11.908589,-0.1880,-0.7007,-0.0171,-14.71,-0.43,5.07,-24.97,1.71,2.74
11.939671,-0.1660,-0.7222,-0.0562,-11.23,1.59,0.73,-28.14,2.13,2.70
11.939671,-0.1289,-0.7241,-0.0532,-7.81,3.48,0.00,-31.31,2.63,2.55
11.999582,-0.1650,-0.6992,-0.0098,-8.18,2.93,0.31,-34.51,3.17,2.37
11.999582,-0.1968,-0.6704,-0.0122,-11.47,5.37,-3.36,-37.78,3.72,2.11
12.029483,-0.1558,-0.7017,-0.1030,-8.48,7.57,-8.36,-41.04,4.30,1.69
12.029483,-0.0620,-0.7705,-0.0244,-4.27,6.47,-9.22,-44.21,4.85,1.17
12.059880,0.0239,-0.7412,0.0981,-8.24,8.97,-0.06,-47.33,5.39,0.69
12.059880,-0.1064,-0.7251,-0.0039,-10.44,14.53,7.26,-50.44,6.01,0.28
12.119580,-0.2686,-0.7461,-0.1724,-1.28,16.48,2.69,-53.40,6.65,-0.19
12.119580,-0.2676,-0.7695,-0.0762,5.31,13.61,-12.15,-56.16,7.15,-0.86
12.148615,-0.0669,-0.7964,0.0581,2.32,10.25,-19.04,-58.80,7.46,-1.69
12.148615,-0.0117,-0.8027,0.0762,-6.77,2.87,-11.60,-61.42,7.65,-2.37
12.179490,-0.1934,-0.7847,0.0537,-14.04,0.85,-9.83,-64.03,7.76,-2.83
12.179490,-0.2422,-0.8730,-0.0908,-7.20,14.16,-18.98,-66.51,7.84,-3.45
12.239405,-0.1636,-0.8628,-0.1016,6.84,14.83,-29.42,-68.66,7.83,-4.35
12.239405,-0.0552,-0.9658,-0.0049,4.70,13.24,-32.04,-70.59,7.65,-5.20
12.268617,-0.0293,-0.9419,-0.0176,-2.56,8.91,-33.45,-72.49,7.31,-5.97
12.268617,0.1157,-0.9614,-0.0435,-10.44,10.25,-29.30,-74.42,6.87,-6.58
12.299667,0.2080,-0.9473,-0.2202,-7.45,12.39,-15.87,-76.27,6.47,-7.09
12.299667,0.1147,-0.9746,-0.2930,4.27,1.95,-1.59,-77.88,6.15,-7.28
12.359394,-0.0366,-1.0107,-0.1055,12.21,-2.50,-0.06,-79.17,5.87,-7.20
12.359394,0.0332,-0.9624,-0.0005,8.00,4.21,-3.66,-80.34,5.54,-7.14
12.388610,0.1250,-0.9526,-0.1958,9.58,3.30,3.23,-81.45,5.23,-7.14
12.388610,0.0527,-0.9316,-0.2114,18.80,-5.74,12.63,-82.33,5.05,-6.92
12.449367,-0.0830,-0.9399,-0.0420,24.84,-8.73,14.22,-1.19,0.68,0.16
12.449367,-0.1138,-0.8979,-0.0811,24.05,-4.27,4.58,-0.74,0.57,0.36
12.479627,-0.0566,-0.8862,-0.1143,27.83,-12.21,0.61,-0.35,0.41,0.39
12.479627,-0.1802,-0.8154,-0.0322,28.63,-17.52,-2.08,-0.01,0.14,0.38
12.509407,-0.2720,-0.8701,0.1284,20.26,-19.59,-17.64,0.11,-0.21,0.19
12.509407,0.0254,-1.0752,-0.0181,19.96,-7.39,-25.76,-0.07,-0.35,-0.29
12.569433,0.1616,-1.1470,-0.1089,31.31,-9.09,-14.47,-0.37,-0.38,-0.68
12.569433,0.0547,-1.1021,0.0215,36.93,-14.83,-4.58,-0.80,-0.57,-0.83
12.598923,-0.0654,-1.0742,0.2036,27.59,-15.14,-6.35,-1.59,-0.87,-0.88
12.598923,0.0068,-1.1348,0.0498,19.10,-11.35,-8.67,-2.91,-1.09,-0.98
12.629841,0.0532,-1.2080,0.0034,22.77,-13.43,-5.86,-4.61,-1.31,-1.05
12.629841,0.0361,-1.1519,0.0693,22.71,-17.70,-0.61,-6.58,-1.61,-0.99
12.689405,-0.0405,-1.1172,0.2080,13.24,-18.62,-0.67,-8.94,-2.02,-0.81
12.689405,0.0259,-1.1582,0.0786,9.83,-12.88,-0.98,-11.65,-2.29,-0.64
12.718620,0.1226,-1.1465,-0.0171,18.25,-11.90,8.12,-14.48,-2.48,-0.35
12.718620,-0.0776,-1.0234,0.0869,22.89,-19.10,14.47,-17.30,-2.72,0.18
12.749412,-0.2866,-0.9619,0.3271,7.45,-21.73,-2.14,-20.23,-3.04,0.68
12.749412,-0.1055,-0.9946,0.2432,-13.31,-15.81,-17.88,-23.46,-3.26,0.78
12.809853,0.1182,-1.1030,0.0391,-13.55,-17.03,-14.65,-26.82,-3.39,0.76
12.809853,0.1587,-1.0347,0.0474,-5.37,-19.71,1.40,-30.05,-3.55,1.01
12.869596,-0.1343,-0.9453,0.1235,-1.53,-23.01,4.94,-33.10,-3.71,1.56
12.869596,-0.1538,-0.9985,0.1265,-6.16,-17.21,-10.74,-36.01,-3.90,1.96
12.871787,0.0347,-1.1152,-0.0146,-2.08,-13.06,-12.57,-38.80,-3.98,2.09
12.871787,0.0366,-1.1323,-0.0547,7.87,-13.12,-6.59,-41.34,-4.00,2.28
12.930070,-0.0752,-1.1089,0.0312,11.17,-15.01,-9.58,-43.67,-4.05,2.55
12.930070,-0.0010,-1.1929,0.1177,5.74,-13.12,-18.74,-45.90,-4.19,2.71
12.958739,0.2988,-1.3706,0.0962,1.40,-11.90,-8.97,-48.09,-4.31,2.82
12.958739,0.3062,-1.3623,0.0356,2.56,-13.31,15.14,-50.22,-4.30,3.30
12.989395,0.0664,-1.1875,0.0161,7.81,-17.15,25.21,-52.21,-4.20,4.14
12.989395,-0.1465,-1.0156,0.1611,6.90,-17.88,18.13,-54.01,-4.12,5.03
13.049165,-0.1299,-1.0171,0.1206,0.37,-15.32,4.03,-55.74,-4.09,5.65
13.049165,-0.0254,-1.0708,0.0244,9.28,-12.02,0.73,-57.28,-4.05,6.06
13.078334,-0.1025,-0.9429,0.0630,21.36,-5.86,-0.43,-58.47,-3.95,6.35
13.078334,1.2412,-1.1528,0.6416,2.75,24.11,48.34,-59.44,-3.38,6.44
13.109128,-0.3301,-0.7808,0.3989,-54.63,-36.80,66.35,-61.34,-2.58,7.72
13.109128,-1.0151,-1.1108,-0.7661,-12.82,-9.52,-2.08,-63.26,-2.13,8.61
13.169324,0.0034,-0.8779,0.5859,-5.00,6.23,-16.72,-64.29,-2.02,8.33
13.169324,-0.1714,-1.0693,-0.2251,-6.16,2.20,-16.72,-65.40,-1.79,7.97
13.198666,0.3418,-1.0571,0.0962,-2.08,7.63,-7.51,-66.31,-1.59,7.56
13.198666,-0.1592,-1.0000,-0.0352,3.36,1.04,-1.04,-67.15,-1.26,7.44
13.230337,0.0708,-0.9863,0.1479,-0.79,2.81,2.32,-1.46,0.80,0.00
13.230337,-0.0044,-1.0151,0.0244,2.99,0.31,0.00,-1.47,0.83,0.02
13.289355,-0.0649,-0.9775,0.1230,1.89,0.55,0.55,-1.52,0.83,0.04
13.289355,-0.0464,-0.9849,0.1108,-0.61,1.10,-1.83,-1.75,0.86,0.02
13.318379,-0.0259,-1.0024,0.0674,-0.79,1.22,-1.34,-2.17,0.90,-0.01
13.318379,-0.0234,-0.9941,0.0933,-0.43,0.24,-0.61,-2.79,0.93,-0.03
13.349208,-0.0146,-0.9995,0.0776,-0.55,0.31,-0.49,-3.65,0.96,-0.04
13.349208,-0.0264,-0.9951,0.0806,0.12,0.18,0.12,-4.76,0.99,-0.05
13.409444,-0.0317,-0.9873,0.1006,-0.61,0.12,0.00,-6.15,1.03,-0.05
13.409444,-0.0332,-1.0020,0.0527,-0.98,0.12,-0.37,-7.84,1.08,-0.07
13.438705,-0.0142,-1.0044,0.0542,0.55,0.12,-0.18,-9.79,1.13,-0.09
13.438705,-0.0410,-0.9976,0.0737,0.67,-0.24,0.12,-12.00,1.19,-0.10
13.469430,-0.0493,-1.0088,0.0522,1.89,-3.23,-0.79,-14.45,1.21,-0.12
13.469430,-0.0981,-1.0254,-0.0166,6.23,-1.65,-3.72,-17.06,1.24,-0.17
13.530504,-0.1040,-1.0146,0.0312,11.05,0.31,-9.52,-19.76,1.31,-0.33
13.530504,-0.1270,-1.1167,0.0840,11.41,-0.24,-15.87,-22.54,1.38,-0.61
13.558747,0.0674,-1.1973,0.1802,5.62,3.66,-17.70,-25.47,1.47,-1.03
13.558747,0.1455,-1.2876,0.1802,-0.55,1.40,-4.39,-28.58,1.53,-1.30
13.589426,0.0371,-1.2617,0.1040,-3.85,-1.16,5.31,-31.81,1.54,-1.30
13.589426,-0.0840,-1.2344,0.0454,-3.05,-1.77,4.21,-35.03,1.53,-1.21
13.649402,-0.0693,-1.1973,0.0142,-0.61,-1.16,0.49,-38.14,1.52,-1.18
13.649402,-0.0059,-1.2725,0.0068,6.16,0.49,-0.73,-41.06,1.54,-1.21
13.678642,0.1270,-1.2773,0.1138,9.58,0.79,6.35,-43.71,1.60,-1.23
13.678642,0.1206,-1.2681,0.1924,4.64,0.98,19.78,-46.23,1.75,-1.05
13.709426,-0.0161,-1.2368,0.1670,0.24,5.13,26.37,-48.64,2.01,-0.72
13.709426,-0.2017,-1.1895,0.0825,0.18,10.38,20.08,-50.90,2.36,-0.51
13.769444,-0.3267,-1.1343,0.1011,-0.18,14.10,4.52,-52.99,2.70,-0.59
13.769444,-0.3120,-1.1865,0.1206,-5.74,16.36,-15.93,-54.98,2.94,-1.04
13.798960,-0.1411,-1.3188,0.1260,-10.07,16.30,-31.92,-56.91,2.98,-1.80
13.798960,0.0464,-1.2871,0.1343,-17.15,12.63,-32.65,-58.83,2.86,-2.64
13.859388,0.0605,-1.2432,0.0830,-22.64,6.29,-25.88,-60.75,2.63,-3.25
13.859388,-0.0024,-1.1528,-0.0264,-20.14,9.64,-23.19,-62.57,2.37,-3.72
13.888692,-0.0674,-1.2041,-0.1587,-2.20,20.45,-27.16,-64.12,2.13,-4.31
13.888692,0.0923,-1.2129,-0.0503,16.42,21.36,-27.34,-65.18,1.87,-5.05
13.919454,0.2256,-1.1504,0.1968,14.34,14.40,-13.67,-65.99,1.63,-5.59
13.919454,0.2007,-1.0127,0.2461,-4.21,10.07,3.91,-66.92,1.54,-5.82
13.980873,0.0439,-0.9819,0.1035,-17.64,2.75,12.27,-68.09,1.57,-5.77
13.980873,-0.0356,-1.0269,0.0728,-18.98,1.28,7.87,-69.31,1.59,-5.64
14.008651,0.1362,-1.0840,0.1221,-18.37,-1.40,9.52,-70.45,1.58,-5.53
14.008651,0.1909,-1.0059,0.1855,-24.41,-6.77,23.80,-71.59,1.68,-5.25
14.039431,0.0410,-0.9688,0.1714,-29.17,-4.94,32.71,-1.67,0.74,0.24
14.039431,-0.0518,-0.9429,0.0503,-22.46,3.91,31.74,-2.24,0.74,0.89
14.099673,-0.1904,-0.8838,0.0254,-8.36,12.45,22.64,-2.65,0.92,1.44
14.099673,-0.2983,-0.7744,0.0454,1.16,18.62,4.03,-2.93,1.27,1.71
14.159841,-0.2295,-0.8804,0.1851,5.98,17.88,-17.70,-3.20,1.72,1.53
14.159841,0.0518,-0.8623,0.2559,-4.70,8.24,-19.29,-3.70,2.10,1.10
14.160012,0.1719,-0.8545,0.2690,-23.86,-1.04,-5.19,-4.72,2.25,0.82
14.160012,0.1436,-0.8418,0.1650,-39.25,-6.47,10.38,-6.33,2.20,0.88
14.218653,-0.0601,-0.8149,-0.0059,-39.06,-3.05,15.93,-8.33,2.14,1.15
14.218653,-0.1504,-0.8208,-0.0972,-26.49,-0.55,8.12,-10.44,2.15,1.37
14.248622,-0.0391,-0.8545,-0.0605,-15.14,3.23,3.60,-12.57,2.28,1.43
14.248622,0.1084,-0.9097,-0.0371,-5.55,6.29,11.17,-14.76,2.50,1.48
14.278653,0.0967,-0.9102,0.0381,0.61,10.50,22.52,-17.06,2.79,1.72
14.278653,-0.0127,-0.8311,0.0459,3.11,15.93,28.81,-19.51,3.20,2.07
14.338673,-0.1567,-0.7793,0.0229,2.81,15.93,23.19,-22.12,3.69,2.37
14.338673,-0.1372,-0.7559,-0.0044,-0.55,13.43,13.49,-24.91,4.17,2.44
14.368654,-0.1006,-0.8003,-0.0674,-3.66,9.28,6.41,-27.90,4.61,2.33
14.368654,-0.0684,-0.8096,-0.0879,-2.62,-0.06,2.69,-31.01,4.90,2.15
14.398967,-0.0420,-0.7915,-0.0059,-4.58,-2.50,0.24,-34.23,5.04,1.96
14.398967,-0.0220,-0.8154,-0.0332,-5.49,0.98,-1.40,-37.50,5.16,1.71
14.458753,0.0386,-0.8320,-0.1006,-2.01,2.62,0.06,-40.74,5.28,1.43
14.458753,0.0288,-0.8208,-0.1089,3.23,2.81,3.97,-43.87,5.37,1.20
14.488719,-0.0376,-0.7476,-0.1167,3.11,-2.69,4.58,-46.90,5.40,1.05
14.488719,-0.1001,-0.6899,-0.0972,-0.61,-10.01,0.00,-49.88,5.30,0.99
14.518699,-0.0854,-0.6758,-0.0391,-4.39,-12.51,-4.88,-52.83,5.10,0.93
14.518699,0.0024,-0.7217,-0.0415,-4.70,-7.26,-5.37,-55.68,4.90,0.83
14.578730,0.0850,-0.7764,-0.1060,3.54,1.46,2.81,-58.33,4.82,0.70
14.578730,0.0000,-0.7197,-0.0674,12.94,6.59,11.41,-60.67,4.89,0.59
14.608748,-0.1201,-0.6377,0.0288,13.61,7.93,11.72,-62.78,5.05,0.48
14.608748,-0.2026,-0.6216,0.0381,8.12,8.97,4.46,-64.79,5.21,0.27
14.638731,-0.1689,-0.6636,0.0117,2.26,5.80,-4.46,-66.76,5.30,-0.05
14.638731,-0.0483,-0.7109,-0.0195,-2.08,5.13,-8.06,-68.71,5.30,-0.42
14.728792,-0.0146,-0.7437,-0.0986,-4.21,0.00,-5.86,-70.61,5.25,-0.73
14.728792,-0.0312,-0.7720,-0.1299,-2.14,0.31,-5.62,-72.42,5.17,-0.93
14.732748,0.0034,-0.8447,-0.1445,6.84,4.15,-4.70,-74.05,5.09,-1.16
14.732748,-0.0073,-0.8721,-0.0337,15.56,6.23,-4.46,-75.41,5.00,-1.41
14.758818,-0.0410,-0.8643,0.1113,15.14,5.37,-4.94,-76.57,4.87,-1.64
14.758818,-0.0352,-0.8726,0.1948,6.16,7.26,-6.10,-77.70,4.72,-1.86
14.818629,-0.0112,-0.9399,0.0518,4.70,11.90,-3.11,-78.81,4.59,-2.13
14.818629,-0.0264,-0.9497,-0.0283,11.17,12.63,0.00,-79.76,4.50,-2.40
14.848635,-0.1235,-0.8813,-0.0415,15.14,8.85,-0.43,-1.36,0.84,0.00
14.848635,-0.1924,-0.8311,0.0903,9.95,2.38,-9.70,-1.13,0.94,-0.09
14.878630,-0.0317,-0.9185,0.1250,0.92,4.88,-13.98,-1.14,1.02,-0.36
14.878630,0.0908,-0.9971,-0.1099,5.86,8.54,-1.89,-1.31,1.20,-0.53
14.938690,-0.0474,-0.9375,-0.1255,19.17,5.92,8.36,-1.44,1.35,-0.44
14.938690,-0.2729,-0.7769,0.0415,21.73,1.40,0.49,-1.59,1.45,-0.33
14.968733,-0.2627,-0.8193,0.2280,9.40,-1.77,-19.65,-2.05,1.49,-0.54
14.968733,0.0986,-1.0088,0.0664,5.19,7.63,-17.09,-2.93,1.71,-0.98
14.998875,0.0669,-1.0132,-0.1133,14.10,5.92,-0.49,-4.06,1.97,-1.17
14.998875,-0.1924,-0.8887,-0.0127,21.06,0.43,-3.11,-5.35,2.11,-1.20
15.058727,-0.2246,-0.8975,0.1616,12.82,-4.58,-19.71,-6.93,2.21,-1.48
15.058727,0.1328,-1.0225,0.1025,0.55,-5.13,-19.71,-9.00,2.26,-1.97
15.088538,0.2510,-1.1450,-0.0518,3.05,-3.48,-0.43,-11.48,2.26,-2.21
15.088538,0.1270,-1.0830,-0.0601,13.79,-3.05,13.73,-14.10,2.21,-2.10
15.118831,-0.0723,-0.9419,0.0874,13.55,-7.39,15.81,-16.83,2.09,-1.80
15.118831,-0.1177,-0.8745,0.1826,-2.44,-4.94,8.24,-19.82,1.99,-1.57
15.178627,-0.1406,-0.8999,-0.0493,-14.22,-9.95,1.16,-23.19,1.94,-1.49
15.178627,-0.2266,-1.0078,-0.2607,-3.85,-24.60,-10.07,-26.65,1.69,-1.49
15.208708,-0.1880,-1.0664,-0.1313,15.38,-24.23,-23.50,-29.86,1.29,-1.63
15.208708,0.0586,-1.1841,-0.0420,32.78,-16.66,-24.90,-32.71,0.97,-1.96
15.268813,0.1792,-1.2056,0.1021,39.18,-11.84,-10.80,-35.30,0.73,-2.14
15.268813,0.0518,-1.1445,0.0835,37.48,-12.76,1.95,-37.77,0.56,-2.04
15.298946,-0.1719,-1.0781,0.1562,33.75,-19.10,-1.34,-40.15,0.35,-1.76
15.298946,-0.1011,-1.0898,0.2598,23.38,-15.93,-11.41,-42.47,0.10,-1.63
15.328703,0.1001,-1.1953,0.1836,19.71,-14.40,-5.31,-44.74,-0.08,-1.55
15.328703,0.0312,-1.1646,0.1787,21.67,-13.49,3.91,-46.84,-0.19,-1.31
15.388709,-0.0664,-1.1201,0.2314,23.01,-15.56,3.66,-48.72,-0.26,-0.98
15.388709,-0.0317,-1.0825,0.3105,19.10,-11.78,2.93,-50.43,-0.29,-0.69
15.418710,0.0259,-1.1104,0.2275,16.30,-5.92,8.91,-52.03,-0.20,-0.45
15.418710,-0.0391,-1.0913,0.2139,19.71,-0.37,14.71,-53.45,0.05,-0.21
15.449077,-0.2158,-0.9951,0.2012,20.81,0.67,10.62,-54.67,0.41,-0.05
15.449077,-0.2715,-1.0605,0.2734,17.94,-4.82,-9.09,-55.77,0.63,-0.07
15.508751,0.0015,-1.0938,0.4204,2.81,-8.85,-17.52,-56.90,0.62,-0.29
15.508751,0.1494,-1.1885,0.3643,-14.10,-11.60,-7.20,-58.24,0.53,-0.35
15.538746,0.0981,-1.1948,0.1528,-15.44,-11.60,4.70,-59.68,0.53,-0.18
15.538746,0.0117,-1.1924,0.0239,-1.28,-7.87,8.97,-60.92,0.62,0.08
15.568655,0.0322,-1.1680,0.0527,15.50,-2.01,11.35,-61.78,0.79,0.28
15.568655,0.0117,-1.0996,0.2129,18.19,-2.01,14.53,-62.39,1.02,0.49
15.628709,-0.0508,-1.0381,0.2593,9.89,-4.88,13.12,-63.00,1.24,0.73
15.628709,-0.0962,-1.0073,0.2290,3.17,-7.93,6.35,-63.69,1.38,0.96
15.658816,-0.0186,-1.0215,0.2578,-1.89,-5.92,0.49,-1.46,0.75,0.00
15.658816,0.0474,-1.0405,0.1577,-2.14,-3.23,3.60,-1.54,0.66,0.03
15.690344,-0.0083,-1.0073,0.1084,6.10,-0.67,8.00,-1.61,0.62,0.16
15.690344,-0.1230,-0.9355,0.1484,13.06,0.61,6.16,-1.65,0.63,0.32
15.749260,-0.2026,-0.8774,0.2598,10.13,0.24,-4.76,-1.79,0.66,0.34
15.749260,-0.1274,-0.9253,0.2500,0.73,-1.40,-16.42,-2.24,0.70,0.11
15.778720,0.0190,-1.0352,0.1938,-1.83,-3.36,-18.13,-3.04,0.73,-0.25
15.778720,0.0913,-1.0703,0.2319,-1.83,-2.01,-11.35,-4.13,0.73,-0.54
15.808757,0.0425,-1.0771,0.1973,-3.36,-0.12,-7.20,-5.53,0.74,-0.71
15.808757,0.0645,-1.1279,0.0928,0.67,-0.61,-3.60,-7.23,0.73,-0.82
15.869161,0.0781,-1.1787,0.1245,10.25,0.79,1.77,-9.11,0.71,-0.83
15.869161,0.0479,-1.1431,0.2212,11.54,0.55,6.84,-11.16,0.69,-0.73
15.899258,0.0078,-1.1445,0.2734,7.69,2.50,8.73,-13.51,0.68,-0.56
15.899258,0.0195,-1.1494,0.2661,3.85,4.33,10.99,-16.13,0.74,-0.37
15.928744,-0.0361,-1.1318,0.2217,0.06,2.99,13.61,-18.98,0.83,-0.14
15.928744,-0.1260,-1.1099,0.2026,-1.59,2.26,9.58,-21.96,0.94,0.07
15.988704,-0.1519,-1.0928,0.2593,-4.88,2.14,2.01,-25.01,1.09,0.14
15.988704,-0.1382,-1.1074,0.2539,-10.93,2.87,-4.88,-28.12,1.27,0.04
16.018674,-0.0425,-1.1821,0.3003,-15.38,2.14,-9.58,-31.27,1.42,-0.19
16.018674,0.0527,-1.2012,0.3364,-26.43,3.36,-4.82,-34.48,1.55,-0.41
16.049325,0.0054,-1.2310,0.1855,-29.42,4.88,0.00,-37.72,1.69,-0.54
16.049325,-0.0146,-1.2085,0.1577,-25.02,7.51,0.73,-40.83,1.86,-0.66
16.108693,-0.0171,-1.1631,0.1699,-22.95,10.25,1.83,-43.73,2.05,-0.82
16.108693,0.0015,-1.1553,0.1479,-22.83,10.19,3.36,-46.47,2.27,-0.98
16.138716,0.0254,-1.1362,0.1353,-22.52,9.52,8.00,-49.06,2.48,-1.09
16.138716,-0.0586,-1.1060,0.1050,-20.45,10.01,10.99,-51.48,2.73,-1.15
16.168708,-0.1680,-1.0718,0.1021,-17.82,9.83,5.92,-53.71,2.99,-1.26
16.168708,-0.1665,-1.1055,0.1460,-16.11,11.84,-2.93,-55.77,3.21,-1.52
16.228713,-0.0771,-1.1328,0.1870,-19.65,12.45,-7.75,-57.70,3.37,-1.92
16.228713,0.0093,-1.1699,0.1768,-26.00,10.56,-6.77,-59.62,3.45,-2.31
16.259145,0.0044,-1.1724,0.1245,-30.27,8.91,-3.60,-61.53,3.50,-2.62
16.259145,0.0107,-1.1943,0.0664,-30.03,9.16,-2.69,-63.39,3.54,-2.87
16.288692,0.0552,-1.2012,0.0239,-25.70,12.82,1.53,-65.12,3.59,-3.13
16.288692,0.0649,-1.1870,-0.0439,-16.60,15.01,9.64,-66.65,3.74,-3.36
16.349745,-0.0322,-1.1382,0.0049,-7.45,16.78,12.57,-67.91,3.98,-3.56
16.349745,-0.0845,-1.1143,0.1260,-4.88,15.75,9.22,-69.01,4.21,-3.80
16.378729,0.0190,-1.0977,0.2031,-10.07,12.94,10.50,-70.03,4.40,-4.03
16.378729,-0.0596,-1.0410,0.1738,-19.23,9.77,14.77,-71.13,4.63,-4.14
16.408712,-0.2617,-0.9663,0.0879,-23.38,7.45,6.10,-72.28,4.82,-4.25
16.408712,-0.2686,-0.9995,0.0664,-23.38,9.83,-12.33,-73.44,4.82,-4.50
16.468649,-0.0449,-1.1011,0.0542,-19.71,11.41,-20.51,-1.51,0.81,-0.05
16.468649,0.1089,-1.0850,0.0483,-19.10,7.69,-12.82,-1.92,1.00,-0.40
16.501126,0.0815,-1.0498,-0.0044,-20.51,7.02,-3.54,-2.45,1.12,-0.55
16.501126,0.0283,-1.0601,-0.1250,-10.93,8.79,1.59,-3.05,1.26,-0.57
16.528737,-0.0195,-1.0020,-0.1079,2.08,9.52,4.46,-3.57,1.43,-0.51
16.528737,-0.0386,-0.9565,-0.0239,6.71,9.46,5.68,-4.13,1.60,-0.42
16.588808,-0.0283,-0.9395,-0.0151,7.08,9.40,7.45,-4.87,1.79,-0.31
16.588808,-0.0894,-0.9375,-0.0171,8.00,7.69,6.77,-5.84,1.98,-0.20
16.619159,-0.0913,-0.9424,0.0635,6.41,4.03,1.53,-7.08,2.15,-0.16
16.619159,0.0029,-0.9492,0.1685,-1.46,0.92,0.55,-8.67,2.25,-0.20
16.678730,0.0737,-0.9937,0.1382,-9.16,0.61,6.29,-10.73,2.33,-0.19
16.678730,0.0151,-0.9570,0.1055,-10.56,-1.65,13.31,-13.15,2.37,-0.04
16.709063,-0.0723,-0.9150,0.1528,-12.70,-1.40,13.06,-15.79,2.41,0.16
16.709063,-0.0146,-0.8877,0.1040,-14.28,2.99,13.92,-18.66,2.55,0.33
16.738741,-0.0635,-0.8633,0.0103,-12.33,3.78,17.64,-21.67,2.79,0.53
16.738741,-0.1128,-0.8188,-0.0269,-5.68,6.16,15.44,-24.70,3.10,0.69
16.799925,-0.1040,-0.8252,0.0225,-0.61,6.47,11.72,-27.67,3.49,0.74
16.799925,-0.0278,-0.8184,0.1387,-3.91,4.52,13.12,-30.65,3.87,0.73
16.828729,-0.0586,-0.7803,0.1187,-13.49,-1.16,18.01,-33.73,4.21,0.81
16.828729,-0.1167,-0.7725,0.1040,-21.73,-2.38,17.52,-36.94,4.54,0.95
16.858707,-0.1470,-0.7539,-0.0186,-23.56,-0.31,15.14,-40.20,4.93,1.01
16.858707,-0.1572,-0.7900,-0.1113,-17.21,2.20,10.25,-43.39,5.37,0.93
16.918712,-0.0903,-0.8364,-0.0928,-8.12,2.93,7.87,-46.38,5.82,0.73
16.918712,-0.0444,-0.8140,0.0210,-8.85,1.53,11.78,-49.21,6.25,0.53
16.950043,-0.0869,-0.7944,0.0391,-15.44,0.00,15.14,-52.01,6.68,0.42
16.950043,-0.1743,-0.7500,-0.0225,-22.34,1.22,13.98,-54.85,7.14,0.29
16.978735,-0.2212,-0.7598,-0.1221,-20.57,1.89,6.23,-57.67,7.59,0.04
16.978735,-0.1763,-0.7632,-0.1455,-15.75,2.08,0.43,-60.33,7.98,-0.35
17.038710,-0.0977,-0.7930,-0.1064,-13.55,-0.37,0.06,-62.84,8.29,-0.76
17.038710,-0.0981,-0.7485,-0.0962,-14.40,0.31,4.70,-65.23,8.60,-1.11
17.068765,-0.1968,-0.7051,-0.1411,-14.10,0.73,3.78,-67.52,8.95,-1.45
17.068765,-0.2314,-0.6665,-0.1758,-12.39,2.50,-0.92,-69.71,9.28,-1.88
17.100223,-0.2197,-0.7056,-0.1890,-6.23,4.94,-5.98,-71.75,9.57,-2.43
17.100223,-0.1963,-0.7480,-0.1592,1.16,8.42,-9.16,-73.56,9.83,-3.07
17.159666,-0.1514,-0.7432,-0.0972,3.72,10.74,-10.44,-75.20,10.04,-3.78
17.159666,-0.1514,-0.7456,-0.0811,0.06,11.11,-10.80,-76.76,10.21,-4.51
17.189468,-0.1147,-0.7803,-0.1040,-2.14,10.62,-11.17,-78.29,10.33,-5.20
17.189468,-0.0679,-0.8105,-0.1289,0.31,12.02,-7.45,-79.73,10.42,-5.86
17.218639,-0.1143,-0.7949,-0.1196,3.85,13.92,-3.54,-81.03,10.52,-6.48
17.218639,-0.2134,-0.7646,-0.0996,4.88,15.01,-7.02,-82.21,10.63,-7.11
17.279510,-0.1724,-0.7817,-0.0977,2.99,16.24,-14.22,-1.46,0.80,-0.02
17.279510,-0.0640,-0.8633,-0.1416,3.05,16.11,-14.77,-1.43,1.13,-0.32
17.308747,-0.0283,-0.8750,-0.1685,6.47,16.54,-8.30,-1.45,1.47,-0.56
17.308747,-0.1094,-0.8442,-0.1304,10.13,15.14,-5.19,-1.52,1.79,-0.68
17.339496,-0.0938,-0.8794,-0.0698,15.44,19.96,-7.14,-1.66,2.18,-0.82
17.339496,-0.0405,-0.9131,-0.0430,21.18,23.68,-3.17,-1.87,2.67,-0.94
17.400383,-0.1270,-0.8862,-0.0293,21.24,24.35,-0.06,-2.25,3.22,-1.01
17.400383,-0.1934,-0.8516,-0.0015,15.14,21.24,-5.74,-2.93,3.78,-1.11
17.428685,-0.1294,-0.8828,-0.0181,8.91,18.19,-15.44,-4.02,4.33,-1.42
17.428685,0.0796,-0.9541,-0.0703,5.92,14.59,-14.59,-5.49,4.81,-1.88
17.459479,0.0342,-0.9492,-0.0869,3.48,6.23,-2.93,-7.32,5.12,-2.19
17.459479,-0.1245,-0.8560,-0.0083,-2.26,2.01,-3.48,-9.51,5.28,-2.41
17.519628,-0.0991,-0.8677,-0.0625,-6.77,6.71,-11.11,-12.07,5.48,-2.77
17.519628,0.0352,-1.0142,-0.1836,1.65,8.73,-12.15,-14.86,5.73,-3.28
17.550578,0.1304,-1.0850,-0.1875,14.77,8.36,-2.38,-17.69,5.92,-3.72
17.550578,0.0430,-1.0190,-0.1348,21.18,6.10,7.39,-20.55,6.04,-3.97
17.578733,-0.0303,-0.9922,-0.0596,22.77,4.39,7.02,-23.47,6.12,-4.14
17.578733,-0.0122,-0.9551,-0.0537,21.61,0.92,5.31,-26.46,6.14,-4.35
17.639556,-0.0063,-0.9287,-0.0820,19.90,-5.31,10.07,-29.50,6.05,-4.48
17.639556,-0.1924,-0.8208,-0.0259,15.56,-11.11,8.97,-32.54,5.92,-4.50
17.668739,-0.3960,-0.7554,0.0430,6.65,-19.10,-8.85,-35.61,5.73,-4.63
17.668739,-0.3184,-0.8218,0.1021,-7.02,-23.56,-36.80,-38.78,5.34,-5.12
17.702213,0.0024,-1.0063,-0.0205,-11.11,-23.74,-43.03,-42.06,4.75,-5.85
17.702213,0.1167,-1.0903,-0.0996,-3.23,-24.23,-31.37,-45.20,4.09,-6.37
17.759463,0.0522,-1.0674,-0.0464,8.24,-22.64,-20.14,-48.04,3.47,-6.59
17.759463,0.0884,-1.0430,-0.0249,17.27,-8.73,-12.82,-50.54,3.03,-6.72
17.788769,0.1235,-1.1338,-0.1548,35.46,-1.95,-1.95,-52.67,2.78,-6.81
17.788769,0.0923,-1.1445,-0.0742,57.98,3.54,7.75,-54.24,2.70,-6.82
17.819504,-0.0044,-1.0361,0.1567,60.91,-0.61,13.31,-55.37,2.71,-6.72
17.819504,-0.1030,-0.9380,0.4102,39.92,-4.82,10.07,-56.46,2.72,-6.51
17.880047,-0.0024,-0.9946,0.2222,22.64,0.31,8.06,-57.77,2.74,-6.42
17.880047,0.0049,-1.0771,0.0801,21.91,-2.62,9.58,-59.08,2.77,-6.32
17.908758,-0.0684,-1.0103,0.0713,21.85,-9.83,10.50,-60.26,2.78,-6.11
17.908758,-0.1885,-1.0088,0.1626,17.94,-14.95,2.93,-61.37,2.74,-5.85
17.939477,-0.1035,-1.0469,0.1147,17.76,-11.60,-5.37,-62.41,2.63,-5.75
17.939477,-0.0083,-1.1011,0.0889,22.71,-11.72,-4.15,-63.30,2.49,-5.70
18.000774,-0.0928,-1.0415,0.1499,23.32,-11.11,-0.85,-64.04,2.42,-5.59
18.000774,-0.1772,-1.0112,0.1499,20.75,-10.68,-7.87,-64.71,2.37,-5.56
18.029086,-0.0566,-1.1001,0.1377,20.26,-9.77,-14.77,-65.35,2.21,-5.64
18.029086,0.1025,-1.2231,0.0947,24.72,-8.48,-9.70,-65.87,2.02,-5.70
18.089444,0.1553,-1.2344,0.1172,30.33,-5.92,4.64,-1.46,0.78,0.00
18.089444,-0.0034,-1.1499,0.1455,34.42,-4.52,14.47,-0.83,0.68,0.21
18.118721,-0.2007,-0.9893,0.2100,31.19,-7.51,9.40,-0.29,0.57,0.48
18.118721,-0.3052,-0.9429,0.3174,17.46,-14.83,-9.03,-0.03,0.36,0.48
18.150997,-0.1406,-1.0239,0.3047,1.65,-16.54,-24.48,-0.25,0.13,0.10
18.150997,0.0967,-1.1704,0.2578,-4.94,-15.81,-21.91,-0.91,-0.11,-0.38
18.209356,0.1909,-1.2295,0.1997,-3.30,-9.46,-6.96,-1.88,-0.32,-0.65
18.209356,0.0972,-1.1821,0.0869,3.60,-7.32,5.68,-3.10,-0.48,-0.62
18.238792,0.0181,-1.1426,0.0630,12.76,-5.62,9.03,-4.47,-0.63,-0.41
18.238792,0.0288,-1.1265,0.0991,21.91,-4.39,12.02,-5.95,-0.74,-0.14
18.269537,0.0010,-1.0889,0.2144,24.54,-4.94,15.20,-7.58,-0.83,0.20
18.269537,-0.0493,-1.0132,0.2690,18.25,-6.16,15.56,-9.49,-0.90,0.60
18.329516,-0.0786,-1.0366,0.2549,14.22,-6.23,12.39,-11.69,-0.94,0.98
18.329516,-0.0684,-1.0259,0.2759,12.15,-4.27,11.17,-14.09,-0.90,1.30
18.358762,-0.1270,-1.0083,0.2773,8.42,-2.14,7.81,-16.64,-0.76,1.58
18.358762,-0.1646,-1.0098,0.2695,5.68,-2.08,0.24,-19.32,-0.55,1.72
18.389517,-0.1265,-1.0356,0.2681,3.36,-3.30,-7.20,-22.07,-0.34,1.70
18.389517,-0.0859,-1.0503,0.3286,-1.89,-6.23,-13.24,-24.86,-0.19,1.55
18.450703,0.0327,-1.0889,0.3457,-10.99,-5.13,-13.49,-27.77,-0.12,1.36
18.450703,0.0513,-1.1069,0.2490,-14.53,-4.88,-7.20,-30.75,-0.09,1.25
18.478797,0.0142,-1.0942,0.1826,-12.33,-5.80,-2.93,-33.67,-0.07,1.26
18.478797,0.0088,-1.0791,0.1787,-6.47,-4.09,-0.12,-36.43,-0.04,1.34
18.509559,-0.0337,-1.0425,0.1436,1.28,-0.37,2.62,-38.94,0.05,1.44
18.509559,-0.0884,-1.0220,0.1865,7.51,2.01,0.43,-41.18,0.21,1.49
18.569605,-0.0947,-0.9990,0.2930,5.43,0.73,-3.97,-43.23,0.37,1.45
18.569605,-0.0425,-1.0186,0.3550,-5.00,0.31,-7.63,-45.24,0.46,1.35
18.599009,-0.0225,-1.0522,0.2524,-12.21,0.18,-7.69,-47.31,0.52,1.22
18.599009,0.0107,-1.1118,0.1475,-9.70,0.24,-7.26,-49.31,0.54,1.11
18.629490,0.0601,-1.1343,0.1611,-4.27,0.12,-2.87,-51.12,0.54,1.05
18.629490,0.0308,-1.1240,0.2183,-3.48,-0.31,1.46,-52.77,0.57,1.09
18.689186,-0.0176,-1.1211,0.2388,-6.16,-0.06,2.20,-54.34,0.62,1.16
18.689186,-0.0303,-1.1484,0.2266,-7.39,0.00,1.22,-55.86,0.67,1.21
18.718717,-0.0225,-1.1602,0.2402,-8.54,0.06,1.28,-57.29,0.72,1.25
18.718717,-0.0547,-1.1807,0.2251,-11.78,-0.31,1.40,-58.68,0.77,1.29
18.749319,-0.0854,-1.2124,0.2002,-12.63,-0.61,-0.31,-60.03,0.83,1.31
18.749319,-0.0688,-1.2422,0.1924,-12.51,-0.61,-2.38,-61.32,0.88,1.29
18.810095,-0.0176,-1.2754,0.2310,-14.65,0.85,-3.85,-62.55,0.90,1.24
18.810095,0.0249,-1.2852,0.2480,-21.24,2.69,-2.32,-63.79,0.92,1.16
18.838848,0.0103,-1.2686,0.2529,-28.99,1.34,-1.10,-65.12,0.94,1.12
18.838848,-0.0137,-1.2515,0.2515,-36.01,4.03,-2.50,-66.53,0.96,1.07
18.869470,-0.0044,-1.2432,0.1748,-40.28,6.16,-3.91,-68.01,0.96,0.94
18.869470,0.0513,-1.2319,0.1304,-37.66,8.00,0.73,-2.19,0.91,-0.04
18.929514,-0.0254,-1.1753,0.0845,-30.94,10.13,7.57,-2.91,1.09,0.05
18.929514,-0.1235,-1.1470,0.1001,-23.80,14.34,5.62,-3.59,1.34,0.19
18.958808,-0.1226,-1.1533,0.1392,-20.08,15.50,-0.55,-4.31,1.66,0.22
18.958808,-0.0508,-1.1426,0.2202,-24.48,13.06,-5.07,-5.22,1.97,0.13
18.989540,-0.0200,-1.1211,0.2378,-34.30,10.25,-5.80,-6.51,2.24,-0.02
18.989540,0.0073,-1.0972,0.1528,-44.43,8.61,-6.10,-8.26,2.46,-0.18
19.049598,0.0469,-1.1318,0.0088,-43.15,8.79,-3.91,-10.37,2.65,-0.35
19.049598,0.0659,-1.0991,-0.0435,-32.41,9.89,1.53,-12.62,2.86,-0.46
19.079587,0.0459,-1.0244,-0.0312,-27.40,9.58,6.90,-15.00,3.05,-0.47
19.079587,0.0850,-1.0430,-0.1128,-18.80,16.30,12.63,-17.52,3.31,-0.43
19.108821,0.0356,-1.0215,-0.1982,0.18,20.94,21.12,-19.99,3.73,-0.31
19.108821,-0.0820,-0.9429,-0.0942,11.96,18.86,22.03,-22.35,4.17,-0.15
19.169561,-0.0864,-0.8618,0.1147,5.13,15.93,19.23,-24.83,4.57,-0.05
19.169561,-0.1094,-0.8687,0.1035,-9.40,12.15,14.95,-27.63,4.95,-0.05
19.199032,-0.1304,-0.8940,0.0151,-18.80,2.75,7.20,-30.69,5.20,-0.13
19.199032,-0.0332,-0.9404,-0.0088,-18.68,1.16,2.32,-33.86,5.30,-0.30
19.229608,0.0679,-0.9941,-0.0767,-9.83,4.94,7.63,-36.95,5.48,-0.51
19.229608,0.0122,-0.9556,-0.1143,4.64,8.12,15.62,-39.79,5.75,-0.63
19.289845,-0.0596,-0.8945,-0.0498,10.80,6.41,15.44,-42.50,6.02,-0.73
19.289845,-0.0674,-0.8647,0.0308,10.50,3.60,15.20,-45.08,6.23,-0.81
19.318723,-0.1094,-0.8540,0.0903,6.35,2.50,14.59,-47.59,6.44,-0.90
19.318723,-0.1758,-0.8340,0.0864,1.65,0.85,9.64,-50.05,6.62,-1.01
19.349520,-0.1650,-0.8560,0.0298,-1.40,-1.83,1.10,-52.45,6.72,-1.20
19.349520,-0.0894,-0.9038,0.0298,-0.31,-2.38,-3.85,-54.74,6.74,-1.47
19.409544,0.0264,-0.9761,0.0557,4.88,-0.67,-0.06,-56.85,6.78,-1.76
19.409544,0.0728,-0.9604,0.1270,7.32,0.61,11.17,-58.75,6.91,-1.95
19.438865,-0.0405,-0.8936,0.1616,6.96,4.27,19.96,-60.49,7.16,-2.01
19.438865,-0.2158,-0.8237,0.1265,5.19,5.00,16.91,-62.12,7.43,-2.07
19.501353,-0.2236,-0.7891,0.1353,0.85,3.42,8.06,-63.67,7.61,-2.20
19.501353,-0.1948,-0.7686,0.0771,-6.47,-1.59,2.81,-65.22,7.74,-2.38
19.528699,-0.1802,-0.7769,0.0044,-10.01,-5.31,-1.77,-66.78,7.80,-2.55
19.528699,-0.1353,-0.8071,0.0122,-9.83,-7.51,-4.64,-68.27,7.81,-2.71
19.559539,-0.0811,-0.8057,0.0464,-9.34,-2.50,-3.42,-69.69,7.83,-2.90
19.559539,-0.0879,-0.8081,-0.0103,-8.30,3.54,-1.10,-71.04,7.93,-3.18
19.619501,-0.0918,-0.8105,-0.0190,-6.90,2.56,-0.98,-72.29,8.03,-3.47
19.619501,-0.0801,-0.8027,0.0122,-8.97,0.18,-0.43,-73.49,8.11,-3.70
19.648713,-0.0542,-0.7993,-0.0015,-11.78,-0.06,0.18,-74.68,8.17,-3.89
19.648713,-0.0571,-0.8018,-0.0361,-13.00,1.16,1.46,-75.86,8.23,-4.06
19.679714,-0.0791,-0.7744,-0.0732,-13.06,0.43,2.32,-77.00,8.29,-4.21
19.679714,-0.1001,-0.7534,-0.0684,-11.84,1.89,0.06,-1.66,0.80,0.02
19.740043,-0.1079,-0.7471,-0.0801,-11.96,2.20,-2.08,-1.93,0.84,0.00
19.740043,-0.0801,-0.7603,-0.0874,-10.56,2.38,-4.21,-2.25,0.90,-0.07
19.768763,-0.0332,-0.7612,-0.0864,-8.85,6.59,-2.50,-2.65,1.01,-0.14
19.768763,-0.0381,-0.7520,-0.1294,-3.91,10.93,0.31,-3.11,1.22,-0.17
19.799828,-0.0801,-0.7070,-0.1313,0.37,12.39,1.53,-3.64,1.51,-0.15
19.799828,-0.1084,-0.6963,-0.1665,4.39,15.81,-1.53,-4.27,1.85,-0.18
19.859533,-0.0854,-0.7383,-0.1860,9.70,12.21,-3.91,-5.02,2.22,-0.27
19.859533,-0.0596,-0.7319,-0.0562,8.54,9.09,-2.93,-5.95,2.54,-0.40
19.888909,-0.0806,-0.7261,0.0522,2.62,7.02,-1.65,-7.21,2.82,-0.49
19.888909,-0.0581,-0.7705,0.0381,1.46,17.40,0.49,-8.81,3.20,-0.60
19.919590,-0.1362,-0.8169,-0.1641,11.17,26.86,2.75,-10.58,3.85,-0.71
19.919590,-0.2109,-0.8218,-0.1670,19.17,22.34,-3.05,-12.46,4.56,-0.93
19.979997,-0.1406,-0.8438,-0.0288,13.12,11.23,-9.16,-14.64,5.13,-1.31
19.979997,-0.0527,-0.8979,0.0366,-1.04,2.75,-10.68,-17.31,5.53,-1.77
20.011414,-0.0239,-0.9663,0.0278,-8.24,0.61,-10.38,-20.44,5.81,-2.25
20.011414,0.0288,-1.0234,-0.0381,-3.60,6.77,-7.87,-23.80,6.08,-2.75
20.041528,0.0288,-1.0312,-0.0435,7.20,9.46,-2.38,-27.17,6.38,-3.22
20.041528,-0.0186,-0.9727,0.0181,12.15,10.31,2.87,-30.51,6.65,-3.63
20.099966,-0.0645,-0.9185,0.0269,9.22,12.33,2.50,-33.90,6.89,-4.03
20.099966,-0.0713,-0.9126,-0.0181,7.14,6.41,-1.53,-37.30,7.02,-4.46
20.128758,0.0283,-0.9136,0.0283,5.13,0.37,-1.77,-40.67,6.98,-4.87
20.128758,0.0146,-0.9106,0.0244,4.52,3.42,5.68,-43.94,6.93,-5.16
20.158950,-0.1362,-0.8960,-0.0244,8.85,3.11,7.51,-47.02,6.90,-5.37
20.158950,-0.2236,-0.7769,0.0195,8.00,-2.50,1.28,-49.88,6.81,-5.57
20.219560,-0.3037,-0.7427,0.1494,-3.36,-12.57,-10.93,-52.71,6.55,-5.77
20.219560,-0.1011,-0.8818,0.0444,-12.82,-3.23,-19.29,-55.56,6.23,-6.15
20.248751,0.0210,-1.0151,-0.1294,-2.50,-3.11,-15.38,-58.21,6.04,-6.64
20.248751,0.0566,-0.9819,0.0088,4.58,-9.70,-10.01,-60.52,5.81,-6.94
20.279543,0.0254,-0.9312,0.1157,-1.71,-9.03,-2.32,-62.71,5.58,-7.03
20.279543,0.0337,-0.9883,-0.0684,-1.71,1.10,2.38,-64.80,5.45,-7.10
20.339547,0.0796,-1.1182,-0.2783,15.01,5.19,8.30,-66.58,5.44,-7.23
20.339547,0.1064,-1.0557,-0.2500,33.69,-2.26,18.25,-67.89,5.51,-7.22
20.368768,-0.0293,-0.9355,0.0078,39.00,-9.28,23.68,-68.89,5.59,-6.93
20.368768,-0.2812,-0.8657,0.1646,30.58,-11.96,15.81,-69.80,5.62,-6.56
20.399814,-0.3901,-0.8789,0.2075,12.45,-17.88,-6.71,-70.82,5.43,-6.27
20.399814,-0.2769,-0.8896,0.1855,-6.59,-25.27,-24.78,-72.06,4.98,-6.13
20.459474,-0.0972,-0.9976,0.1006,-14.53,-22.16,-32.10,-73.45,4.41,-6.07
20.459474,-0.0171,-1.1123,-0.1011,0.37,-18.92,-26.86,-74.66,3.91,-6.09
20.488801,-0.0679,-1.1450,-0.0142,20.51,-21.30,-24.35,-75.39,3.46,-6.02
20.488801,0.0317,-1.1309,0.2036,23.56,-10.13,-20.08,-1.07,0.53,-0.37
20.519467,0.0200,-1.1304,0.0605,24.96,-4.27,-8.85,-0.63,0.42,-0.65
20.519467,-0.1035,-1.0645,0.1143,25.09,-8.30,-8.54,-0.24,0.30,-0.80
20.579628,-0.2866,-0.9053,0.2510,7.51,-21.00,-21.55,-0.16,0.01,-1.09
20.579628,-0.1431,-0.9956,0.2070,-17.40,-21.67,-43.15,-0.71,-0.40,-1.77
20.608805,0.2139,-1.2354,-0.0933,-16.91,-18.98,-35.64,-1.72,-0.72,-2.60
20.608805,0.2979,-1.3232,-0.1860,7.39,-13.61,-11.11,-2.72,-1.00,-3.03
20.639624,0.1611,-1.2368,-0.0684,28.56,-11.72,9.09,-3.61,-1.29,-2.96
20.639624,0.0142,-1.1572,0.0996,34.97,-9.77,13.73,-4.59,-1.60,-2.63
20.700319,0.0015,-1.1348,0.1553,32.59,-7.39,15.01,-5.86,-1.87,-2.25
20.700319,-0.0479,-1.0991,0.1489,29.36,-5.80,14.59,-7.46,-2.07,-1.82
20.728762,-0.0708,-1.0459,0.0889,29.60,-5.86,10.80,-9.34,-2.20,-1.42
20.728762,-0.0610,-1.0615,0.1416,31.80,-9.22,5.98,-11.38,-2.32,-1.10
20.759400,-0.0737,-1.0088,0.2764,25.21,-11.29,4.58,-13.59,-2.44,-0.81
20.759400,-0.1182,-1.0288,0.3384,10.93,-10.01,-0.12,-16.11,-2.54,-0.56
20.819557,-0.0518,-1.0547,0.1714,4.94,-5.25,-1.10,-18.87,-2.49,-0.40
20.819557,-0.0918,-1.0850,0.0713,9.16,-6.59,-4.94,-21.65,-2.38,-0.28
20.848792,-0.0278,-1.1045,0.1172,12.21,-9.52,-10.80,-24.38,-2.33,-0.25
20.848792,0.1377,-1.1851,0.1343,12.94,-5.37,-6.16,-27.07,-2.28,-0.25
20.909579,0.1729,-1.2295,0.0088,23.13,-4.21,11.35,-29.63,-2.10,-0.04
20.909579,0.0005,-1.1265,0.2158,29.60,-6.84,17.33,-31.96,-1.95,0.46
20.938848,-0.1118,-1.0015,0.3638,16.30,-8.67,12.08,-34.29,-1.84,0.96
20.938848,-0.1196,-1.0557,0.3350,1.59,-8.67,0.61,-36.72,-1.80,1.30
20.969432,0.0210,-1.1362,0.1973,-2.44,-8.97,-0.43,-39.14,-1.74,1.47
20.969432,0.0439,-1.1416,0.1572,2.38,-7.26,5.43,-41.40,-1.61,1.69
21.029527,-0.0210,-1.0918,0.1509,6.41,-5.49,8.06,-43.46,-1.43,1.97
21.029527,-0.0483,-1.0620,0.1562,8.85,-3.72,5.37,-45.33,-1.25,2.21
21.058819,-0.0322,-1.0640,0.1567,10.50,-2.99,5.37,-47.04,-1.06,2.40
21.058819,-0.0674,-1.0386,0.1890,12.21,-2.69,4.09,-48.59,-0.85,2.56
21.089587,-0.0542,-1.0029,0.3149,5.49,-4.46,1.95,-50.07,-0.69,2.69
21.089587,-0.0713,-1.0171,0.2666,-2.50,-4.82,1.10,-51.59,-0.53,2.80
21.149532,-0.1079,-1.0161,0.2407,-4.27,-4.76,-3.11,-53.06,-0.41,2.86
21.149532,-0.0835,-1.0015,0.2622,-7.26,-3.72,-7.87,-54.48,-0.33,2.83
21.178757,-0.0293,-1.0146,0.2422,-11.05,-2.08,-9.95,-55.87,-0.28,2.72
21.178757,0.0679,-1.0767,0.1226,-8.00,-0.37,-5.43,-57.18,-0.20,2.59
21.209541,0.0483,-1.0986,0.0825,2.93,-1.22,3.97,-58.29,-0.04,2.59
21.209541,-0.0161,-1.0640,0.1973,7.69,0.06,6.35,-59.18,0.15,2.67
21.269555,-0.0562,-1.0728,0.2334,5.25,0.55,5.13,-60.01,0.35,2.74
21.269555,-0.0801,-1.1006,0.2739,0.12,-0.73,1.89,-60.85,0.49,2.80
21.299050,-0.0859,-1.1274,0.2778,-6.77,-0.67,-1.04,-61.76,0.60,2.80
21.299050,-0.0298,-1.2227,0.2383,-10.01,0.73,-2.62,-1.59,0.78,-0.04
21.329572,0.0132,-1.2676,0.2192,-10.62,0.98,1.46,-1.83,0.80,-0.05
21.329572,-0.0317,-1.2856,0.2002,-10.07,1.77,5.07,-2.17,0.83,0.02
21.389549,-0.0986,-1.2969,0.1904,-8.54,3.42,3.54,-2.64,0.88,0.11
21.389549,-0.0498,-1.3208,0.1973,-7.51,4.70,1.04,-3.28,0.98,0.14
21.419134,0.0298,-1.3511,0.2266,-9.22,2.81,2.62,-4.19,1.09,0.17
21.419134,0.0386,-1.3296,0.2373,-13.31,0.73,8.36,-5.45,1.17,0.27
21.449503,-0.0161,-1.3164,0.2041,-15.26,-0.67,11.29,-7.09,1.20,0.47
21.449503,-0.0244,-1.2383,0.2026,-15.99,4.09,10.50,-9.05,1.27,0.68
21.509504,-0.0469,-1.1846,0.1538,-16.78,13.06,7.45,-11.32,1.51,0.81
21.509504,-0.0898,-1.1982,0.1841,-16.54,13.98,3.97,-13.82,1.85,0.83
21.538858,-0.0615,-1.1509,0.2432,-22.83,10.38,2.56,-16.57,2.16,0.79
21.538858,-0.0771,-1.1318,0.2441,-31.56,10.62,1.71,-19.62,2.46,0.70
21.569579,-0.1431,-1.1104,0.1729,-36.87,11.29,-2.14,-22.91,2.75,0.55
21.569579,-0.1509,-1.1377,0.1152,-37.48,10.62,-10.68,-26.30,3.02,0.23
21.629568,-0.0210,-1.1768,0.1191,-35.77,8.61,-13.00,-29.71,3.24,-0.21
21.629568,0.0552,-1.1470,0.1191,-37.35,8.18,-6.90,-33.11,3.41,-0.60
21.658837,0.0566,-1.1475,0.0234,-35.52,8.54,1.59,-36.49,3.60,-0.87
21.658837,-0.0161,-1.1362,-0.0205,-25.27,8.06,7.20,-39.68,3.78,-1.01
21.689444,-0.0874,-1.0146,0.0522,-21.42,7.63,8.48,-42.64,3.96,-1.09
21.689444,-0.1108,-0.9761,0.0469,-22.40,10.44,5.98,-45.49,4.16,-1.23
21.749617,-0.0576,-1.0210,-0.0132,-15.44,14.10,4.46,-48.16,4.42,-1.49
21.749617,-0.0791,-0.9980,0.0146,-4.52,10.80,5.00,-50.53,4.67,-1.76
21.782415,-0.0386,-0.9883,0.1328,-1.40,8.97,5.80,-52.62,4.89,-1.99
21.782415,-0.0049,-0.9463,0.1416,-6.29,14.10,10.93,-54.62,5.17,-2.23
21.809527,-0.0942,-0.9331,0.0327,-9.52,14.71,13.61,-56.56,5.53,-2.45
21.809527,-0.1528,-0.9473,0.0430,-6.10,11.96,8.67,-58.39,5.83,-2.68
21.869926,-0.0957,-0.9404,0.0913,-4.64,7.08,4.33,-60.06,6.05,-2.95
21.869926,0.0093,-0.9360,0.1357,-9.09,-0.61,6.71,-61.66,6.20,-3.11
21.899112,0.0244,-0.9028,0.1377,-14.34,-1.83,15.20,-63.24,6.37,-3.11
21.899112,-0.0620,-0.8447,0.0864,-15.62,2.32,19.10,-64.79,6.62,-3.06
21.929561,-0.1035,-0.8105,0.0532,-13.18,8.12,17.64,-66.24,6.93,-3.09
21.929561,-0.1724,-0.7827,0.0005,-5.31,12.70,14.16,-67.53,7.27,-3.27
21.989688,-0.2300,-0.7178,0.0229,-2.62,6.35,5.92,-68.64,7.51,-3.50
21.989688,-0.1978,-0.7393,0.1567,-7.08,1.46,-4.03,-69.72,7.58,-3.70
22.021602,-0.1167,-0.7251,0.1182,-14.40,0.67,-7.63,-70.86,7.56,-3.95
22.021602,-0.0806,-0.7402,0.0186,-19.04,-1.04,-8.42,-72.05,7.50,-4.17
22.052908,-0.0952,-0.7300,-0.0508,-18.25,-2.38,-9.40,-73.23,7.42,-4.36
22.052908,-0.0767,-0.7505,-0.0933,-16.24,-6.47,-12.15,-74.34,7.26,-4.50
22.108818,-0.0308,-0.7529,-0.0381,-15.75,-10.99,-11.23,-75.38,7.05,-4.53
22.108818,-0.0049,-0.7744,0.0190,-18.62,-10.25,-8.48,-1.70,0.63,-0.13
22.139717,0.0308,-0.7852,0.0239,-20.87,-5.49,-3.23,-2.12,0.47,-0.25
22.139717,0.0210,-0.7822,-0.0259,-20.45,1.71,2.56,-2.63,0.43,-0.24
22.169692,-0.0435,-0.7578,-0.1509,-15.99,5.07,7.02,-3.21,0.51,-0.14
22.169692,-0.1143,-0.7300,-0.1553,-10.50,3.36,5.31,-3.86,0.60,-0.01
22.229614,-0.1162,-0.7036,-0.0864,-10.44,2.69,0.24,-4.60,0.69,0.04
22.229614,-0.0688,-0.7437,-0.0488,-13.24,3.23,-3.48,-5.56,0.79,0.00
22.258820,-0.0190,-0.7485,-0.0957,-16.05,3.66,-1.28,-6.78,0.94,-0.07
22.258820,-0.0664,-0.7119,-0.1387,-16.48,4.76,1.22,-8.27,1.10,-0.07
22.319819,-0.1504,-0.6748,-0.1938,-14.71,5.98,-0.92,-10.00,1.32,-0.09
22.319819,-0.1919,-0.6558,-0.2300,-9.83,7.14,-7.14,-11.90,1.58,-0.21
22.348791,-0.1699,-0.6689,-0.2095,-4.46,7.08,-15.44,-13.95,1.91,-0.51
22.348791,-0.0703,-0.6768,-0.1509,-4.03,5.62,-19.41,-16.18,2.24,-0.95
22.379607,-0.0098,-0.7002,-0.1719,-5.68,5.74,-17.40,-18.67,2.55,-1.42
22.379607,0.0010,-0.7334,-0.1978,-4.46,7.57,-15.50,-21.41,2.86,-1.87
22.439657,0.0068,-0.7319,-0.2402,-0.43,9.89,-12.08,-24.34,3.16,-2.31
22.439657,-0.0469,-0.7632,-0.2349,6.84,10.56,-12.57,-27.38,3.45,-2.74
22.469765,0.0332,-0.8125,-0.0903,10.38,9.77,-14.95,-30.48,3.66,-3.25
22.469765,0.0874,-0.8140,0.0430,4.58,9.28,-7.75,-33.74,3.81,-3.71
22.499870,-0.0020,-0.8071,0.0825,-5.86,12.02,-2.08,-37.22,3.93,-4.04
22.499870,-0.0991,-0.8428,-0.0039,-8.06,18.43,-5.37,-40.83,4.07,-4.43
22.559572,-0.0942,-0.8589,-0.1060,-5.07,18.13,-13.67,-44.41,4.17,-4.99
22.559572,-0.0615,-0.8438,-0.1367,-5.19,5.13,-19.96,-47.93,4.06,-5.59
22.588799,0.0684,-0.8472,-0.0322,-13.61,0.67,-21.55,-51.50,3.71,-6.07
22.588799,0.2168,-0.9585,-0.1475,-17.52,8.42,-10.80,-55.10,3.39,-6.49
22.619932,0.2510,-1.0347,-0.2954,-6.23,14.95,6.84,-58.51,3.24,-6.76
22.619932,0.1240,-0.9668,-0.3286,10.68,18.43,22.52,-61.56,3.25,-6.85
22.679587,-0.0801,-0.9502,-0.2349,26.18,20.51,23.93,-64.18,3.36,-6.88
22.679587,-0.1567,-0.9331,-0.1250,32.71,19.23,14.40,-66.43,3.46,-7.05
22.708819,-0.0952,-0.9390,-0.0503,29.66,11.66,6.35,-68.46,3.44,-7.28
22.708819,-0.0723,-0.8940,0.0581,17.64,5.13,4.88,-70.41,3.37,-7.45
22.739613,-0.0664,-0.9160,0.0332,5.37,3.78,0.98,-72.39,3.27,-7.57
22.739613,0.0396,-1.0181,-0.1235,6.90,6.10,1.10,-74.27,3.17,-7.76
22.799883,0.0796,-1.0366,-0.1470,15.01,0.18,8.18,-75.86,3.11,-7.86
22.799883,-0.1001,-0.8901,0.0254,13.85,-9.46,11.35,-77.23,3.10,-7.72
22.828841,-0.2266,-0.8735,0.1934,0.92,-6.71,-1.10,-78.59,3.03,-7.54
22.828841,-0.0054,-1.0435,-0.0029,-6.29,5.74,-12.45,-80.00,2.83,-7.70
22.859575,0.1948,-1.1934,-0.2422,4.82,1.34,-0.92,-81.23,2.66,-7.90
22.859575,0.1084,-1.1777,-0.2085,23.93,0.31,17.15,-82.05,2.72,-7.88
22.919967,-0.0156,-1.0654,-0.1465,36.32,5.19,23.99,-82.49,2.98,-7.82
22.919967,-0.0225,-1.0479,-0.1616,45.10,8.30,24.96,-0.92,0.88,0.31
22.948834,-0.0249,-1.0396,-0.1304,49.68,0.24,27.77,0.01,0.96,0.83
22.948834,-0.1846,-0.9717,0.0073,44.37,-7.14,28.44,0.82,0.87,1.41
22.979601,-0.3237,-0.9360,0.1221,31.86,-11.84,14.95,1.31,0.66,1.85
22.979601,-0.1987,-1.0264,0.0259,23.13,-9.16,0.12,1.42,0.54,1.96
23.039609,-0.0952,-1.1143,-0.0562,25.15,-15.87,-0.98,1.25,0.42,1.93
23.039609,-0.1587,-1.0933,0.0508,27.22,-16.97,-0.85,0.88,0.24,1.91
23.070041,-0.1904,-1.0723,0.1313,24.11,-16.11,-5.13,0.21,0.10,1.85
23.070041,-0.1489,-1.0591,0.1841,15.62,-15.08,-9.70,-0.88,0.03,1.70
23.099877,-0.1396,-1.0825,0.1289,10.62,-14.04,-11.11,-2.41,0.02,1.52
23.099877,-0.1899,-1.1226,0.1323,12.45,-14.16,-16.54,-4.26,0.03,1.28
23.159597,-0.0649,-1.1143,0.2476,11.84,-13.18,-19.10,-6.36,0.08,0.95
23.159597,0.0693,-1.1108,0.2588,3.78,-8.54,-10.86,-8.84,0.18,0.70
23.188823,0.0640,-1.0825,0.0884,0.12,-9.34,0.24,-11.66,0.29,0.67
23.188823,-0.0132,-1.0430,0.0425,3.91,-12.76,7.87,-14.63,0.29,0.86
23.220296,-0.1636,-0.9614,0.0557,5.62,-12.15,7.57,-17.62,0.26,1.16
23.220296,-0.2554,-0.9551,0.0337,5.13,-13.06,-2.32,-20.64,0.25,1.35
23.279537,-0.2295,-1.0200,0.0127,7.26,-11.29,-14.71,-23.64,0.27,1.31
23.279537,-0.0747,-1.0903,0.0479,8.54,-13.85,-22.03,-26.56,0.28,1.06
23.308752,0.1055,-1.1436,0.1108,3.60,-14.28,-16.36,-29.49,0.22,0.84
23.308752,0.1133,-1.1743,-0.0112,3.72,-15.44,-3.97,-32.43,0.13,0.87
23.339615,0.0918,-1.2412,-0.1030,18.43,-9.46,4.09,-35.17,0.04,1.12
23.339615,0.0767,-1.2197,-0.0571,38.15,-5.07,12.82,-37.49,0.07,1.47
23.429710,-0.0752,-1.1157,0.1309,42.48,-3.60,13.61,-39.46,0.14,1.92
23.429710,-0.1084,-1.0898,0.2646,31.74,-5.92,5.55,-41.35,0.16,2.29
23.431911,-0.0815,-1.0771,0.3081,15.44,-9.52,-0.06,-43.32,0.10,2.57
23.431911,-0.0854,-1.0596,0.2231,4.27,-11.84,-3.91,-45.36,-0.02,2.79
23.461635,-0.0952,-1.0762,0.1865,-0.18,-16.54,-9.46,-47.38,-0.24,2.99
23.461635,0.0049,-1.0659,0.2188,-4.76,-14.89,-9.77,-49.35,-0.49,3.16
23.520363,0.0103,-1.0996,0.1006,-1.65,-10.86,-4.82,-51.20,-0.67,3.36
23.520363,0.0132,-1.1113,0.0786,9.83,-7.20,-0.79,-52.78,-0.76,3.57
23.548778,0.0049,-1.0479,0.1733,15.93,-4.39,4.03,-54.07,-0.76,3.80
23.548778,-0.0361,-1.0205,0.2471,13.61,-3.17,5.00,-55.23,-0.70,4.04
23.579571,-0.0825,-1.0044,0.2568,8.85,-3.11,3.48,-56.34,-0.63,4.25
23.579571,-0.0581,-0.9863,0.2539,5.49,-2.44,1.59,-57.42,-0.55,4.39
23.639641,-0.0703,-0.9697,0.2427,2.26,-1.95,1.40,-58.46,-0.45,4.49
23.639641,-0.1021,-0.9678,0.2036,-0.24,-2.38,-1.83,-59.48,-0.36,4.55
23.668759,-0.0454,-1.0234,0.2070,-0.24,-1.04,-3.78,-60.45,-0.29,4.54
23.668759,-0.0103,-1.0317,0.1704,1.89,0.85,0.24,-61.33,-0.18,4.51
23.729471,-0.0796,-0.9824,0.1597,2.99,0.24,0.73,-62.11,-0.02,4.50
23.729471,-0.0952,-0.9790,0.2075,0.73,0.24,-3.72,-1.44,0.78,-0.03
23.758846,-0.0161,-1.0103,0.2207,-4.03,-0.85,-3.91,-1.49,0.78,-0.12
23.758846,0.0044,-1.0117,0.1968,-8.97,-2.20,0.24,-1.74,0.75,-0.15
23.789659,-0.0625,-0.9888,0.1235,-10.44,-3.11,0.79,-2.17,0.70,-0.13
23.789659,-0.1182,-0.9839,0.1025,-7.51,-3.72,-4.27,-2.75,0.64,-0.16
23.849541,-0.0752,-1.0269,0.1035,-2.32,-1.16,-9.34,-3.47,0.63,-0.30
23.849541,0.0176,-1.0752,0.1133,1.71,-1.83,-8.30,-4.33,0.65,-0.48
23.878806,0.0332,-1.0913,0.1558,1.89,-3.30,-3.48,-5.42,0.63,-0.59
23.878806,-0.0024,-1.1260,0.1416,2.44,-2.56,-1.04,-6.81,0.60,-0.63
23.909489,-0.0161,-1.1548,0.1768,3.78,-2.26,-0.18,-8.48,0.59,-0.63
23.909489,-0.0068,-1.2100,0.1914,0.61,-1.65,0.06,-10.49,0.58,-0.62
23.970483,0.0117,-1.2612,0.1870,-0.85,-2.69,2.20,-12.83,0.58,-0.57
23.970483,-0.0317,-1.2358,0.2207,-5.31,-3.54,4.64,-15.50,0.55,-0.47
23.999099,-0.1162,-1.2271,0.1836,-10.01,-3.72,1.59,-18.46,0.55,-0.37
23.999099,-0.0894,-1.3062,0.2007,-12.45,-1.95,-5.13,-21.64,0.56,-0.38
24.031793,0.0376,-1.3662,0.2173,-15.50,2.93,-3.54,-24.94,0.66,-0.48
24.031793,0.0088,-1.3896,0.1631,-16.91,3.78,2.08,-28.34,0.81,-0.52
24.089679,-0.0518,-1.3555,0.1675,-16.05,4.58,1.77,-31.72,0.97,-0.52
24.089679,-0.0801,-1.3418,0.1724,-14.22,7.87,-1.04,-34.99,1.14,-0.59
24.118789,-0.0928,-1.3198,0.1377,-11.47,8.48,-5.19,-38.08,1.33,-0.77
24.118789,-0.0298,-1.3208,0.1587,-7.81,7.81,-8.18,-40.96,1.48,-1.03
24.149586,-0.0039,-1.2500,0.2236,-11.17,4.94,-7.02,-43.65,1.57,-1.27
24.149586,0.0112,-1.2236,0.2427,-19.17,6.71,-6.77,-46.26,1.61,-1.49
24.209582,0.0635,-1.2158,0.1807,-25.21,11.41,-3.05,-48.82,1.69,-1.74
24.209582,0.0396,-1.1660,0.0469,-24.35,12.63,3.72,-51.27,1.83,-1.93
24.238767,-0.0703,-1.1045,0.0586,-21.06,9.89,3.78,-53.53,1.97,-2.04
24.238767,-0.0654,-1.1045,0.1519,-20.14,11.11,-1.59,-55.60,2.08,-2.22
24.270648,0.0894,-1.0864,0.1709,-25.27,9.22,1.65,-57.58,2.17,-2.44
24.270648,0.0928,-1.0425,0.1396,-32.35,5.74,11.78,-59.56,2.30,-2.49
24.329585,-0.0122,-1.0078,0.0547,-32.04,7.08,16.60,-61.50,2.50,-2.44
24.329585,-0.0850,-0.9517,0.0151,-28.56,7.32,14.95,-63.29,2.75,-2.38
24.358875,-0.0708,-0.9468,-0.0630,-20.14,11.66,13.12,-64.90,3.02,-2.44
24.358875,-0.0830,-0.9404,-0.0664,-7.51,11.72,13.73,-66.23,3.32,-2.58
24.390104,-0.1035,-0.8618,-0.0103,-2.38,8.97,13.06,-67.33,3.64,-2.70
24.390104,-0.1309,-0.8120,-0.0273,-3.91,8.30,9.03,-68.35,3.93,-2.83
24.449585,-0.1152,-0.8833,0.0005,-2.14,5.00,2.81,-69.33,4.14,-3.00
24.449585,0.0083,-0.9009,0.1167,-1.89,1.46,3.48,-70.20,4.26,-3.14
24.478811,0.0508,-0.8740,0.1807,-10.44,3.42,13.55,-71.11,4.47,-3.20
24.478811,-0.0674,-0.8809,0.0869,-14.40,5.92,19.71,-72.10,4.83,-3.23
24.509589,-0.1650,-0.8628,-0.0220,-8.42,6.90,15.44,-73.02,5.21,-3.30
24.509589,-0.2251,-0.8311,-0.0073,0.92,3.85,7.75,-1.46,0.81,0.07
24.570966,-0.2134,-0.8213,0.1196,1.28,-0.37,-2.08,-1.44,0.85,0.12
24.570966,-0.0967,-0.8599,0.2280,-6.53,-1.40,-5.68,-1.58,0.85,0.02
24.599101,-0.0723,-0.8667,0.2212,-16.85,-2.38,-3.23,-2.02,0.85,-0.07
24.599101,-0.1592,-0.8320,0.1763,-26.61,-5.80,-6.65,-2.81,0.81,-0.15
24.628796,-0.1255,-0.8418,0.0918,-32.96,-7.45,-15.14,-3.93,0.75,-0.37
24.628796,-0.0542,-0.8999,0.0142,-30.27,-6.59,-17.82,-5.30,0.69,-0.70
24.692369,0.0894,-0.9614,0.0913,-23.01,-4.39,-12.82,-6.78,0.67,-1.02
24.692369,0.1514,-0.9155,0.0820,-23.68,2.75,2.62,-8.48,0.73,-1.12
24.718852,0.0327,-0.9028,-0.0371,-24.54,6.29,10.62,-10.49,0.87,-0.96
24.718852,-0.0215,-0.8750,-0.1226,-18.31,8.24,13.18,-12.74,1.06,-0.75
24.749591,-0.1050,-0.8486,-0.0933,-12.39,7.26,10.56,-15.13,1.29,-0.54
24.749591,-0.0503,-0.7944,0.0020,-15.56,4.15,9.83,-17.72,1.52,-0.41
24.809617,-0.0854,-0.7666,-0.0308,-23.56,5.07,11.47,-20.69,1.76,-0.26
24.809617,-0.1572,-0.7695,-0.1587,-21.06,7.02,7.63,-23.90,2.09,-0.16
24.838887,-0.1045,-0.7500,-0.1328,-14.95,7.51,2.75,-27.14,2.46,-0.22
24.838887,-0.0615,-0.6943,-0.1323,-14.65,10.56,5.37,-30.45,2.91,-0.35
24.870835,-0.1758,-0.6265,-0.1987,-13.00,9.28,4.03,-33.82,3.39,-0.51
24.870835,-0.2534,-0.5957,-0.1802,-13.55,4.03,-5.98,-37.22,3.80,-0.77
24.929606,-0.1948,-0.6045,-0.1763,-17.64,2.87,-15.20,-40.68,4.13,-1.23
24.929606,-0.0942,-0.6978,-0.2656,-16.24,0.55,-20.02,-44.19,4.39,-1.81
24.959381,0.0103,-0.7339,-0.2593,-11.60,2.01,-16.48,-47.66,4.59,-2.39
24.959381,-0.0098,-0.7314,-0.2783,-5.80,4.76,-11.41,-51.04,4.78,-2.91
24.988822,0.0156,-0.7104,-0.2500,-2.81,6.41,-8.36,-54.31,4.97,-3.39
24.988822,0.0190,-0.6855,-0.2559,-3.54,5.37,-4.88,-57.51,5.13,-3.82
25.049589,-0.0220,-0.7017,-0.2456,-1.28,4.94,-4.52,-60.63,5.22,-4.19
25.049589,0.0176,-0.7256,-0.2051,3.60,6.16,-4.03,-63.57,5.25,-4.54
25.078826,0.0542,-0.7222,-0.1914,8.97,12.08,0.79,-66.29,5.29,-4.91
25.078826,0.0156,-0.7290,-0.2388,15.62,17.40,3.78,-68.80,5.37,-5.30
25.139654,0.0044,-0.7192,-0.1924,23.01,18.86,4.09,-71.03,5.44,-5.73
25.139654,0.1016,-0.6865,0.0112,22.83,21.24,6.35,-73.05,5.46,-6.16
25.169589,0.2642,-0.6870,0.0381,22.28,35.71,23.68,-74.89,5.59,-6.65
25.169589,0.0566,-0.6187,-0.0161,27.95,49.13,48.52,-76.50,6.06,-7.16
25.199089,-0.4756,-0.4570,-0.1743,35.46,49.74,46.14,-77.83,6.80,-7.81
25.199089,-0.7290,-0.5854,-0.2104,41.02,37.96,5.80,-78.93,7.34,-8.73
25.259556,-0.4810,-0.6851,0.0254,27.16,8.48,-33.33,-80.00,7.33,-9.71
25.259556,0.0923,-0.9365,0.2646,-1.40,-0.67,-38.51,-81.35,6.94,-10.45
25.288883,0.3662,-1.1084,0.0229,-12.21,8.18,-13.79,-82.91,6.61,-10.99
25.288883,0.2554,-1.1294,-0.2510,-1.40,8.42,10.62,-84.34,6.53,-11.33
25.319587,-0.0308,-0.9512,-0.1074,13.98,1.71,19.96,-85.39,6.61,-11.39
25.319587,-0.2339,-0.8467,0.1562,15.93,2.81,9.22,-1.36,0.79,0.07
25.379604,-0.1709,-0.9624,0.0850,12.08,9.46,-4.46,-1.11,0.93,0.09
25.379604,-0.1348,-1.0146,-0.1162,13.79,-0.55,-6.96,-0.96,1.07,-0.03
25.408695,-0.2803,-0.8784,0.0010,10.56,-13.61,-18.37,-0.94,0.96,-0.26
25.408695,-0.2275,-0.8384,0.1855,-7.51,-21.30,-40.04,-1.29,0.65,-0.86
25.439668,0.2002,-1.0747,-0.0591,-19.84,-18.07,-38.51,-2.20,0.40,-1.71
25.439668,0.2964,-1.2119,-0.2666,-9.28,-23.99,-13.49,-3.38,0.03,-2.21
25.500016,0.0669,-1.0283,-0.1245,1.10,-31.25,6.65,-4.65,-0.55,-2.19
25.500016,-0.1201,-0.8145,0.0435,-2.20,-27.95,11.84,-6.15,-1.22,-1.90
25.528821,-0.2456,-0.9849,-0.2290,10.99,-17.76,6.77,-7.85,-1.61,-1.58
25.528821,-0.2129,-1.1772,-0.1328,37.41,-19.96,-8.00,-9.37,-1.86,-1.47
25.559579,-0.0991,-1.0498,0.2798,23.99,-24.48,-11.11,-11.03,-2.16,-1.50
25.559579,-0.0708,-1.1167,0.0376,-2.08,-20.32,-14.65,-13.42,-2.40,-1.54
25.619596,0.0283,-1.3110,-0.2798,0.43,-24.17,-19.96,-16.34,-2.67,-1.63
25.619596,0.2036,-1.3823,-0.3257,19.78,-27.53,-14.89,-19.30,-3.07,-1.65
25.648830,0.2070,-1.3496,-0.1348,32.71,-31.01,-1.04,-22.18,-3.61,-1.32
25.648830,0.2163,-1.2988,-0.1826,38.70,-23.19,13.85,-25.03,-4.08,-0.66
25.679992,0.0981,-1.3237,-0.2642,58.96,-20.14,23.01,-27.71,-4.39,0.27
25.679992,0.0571,-1.2285,-0.0601,79.16,-16.97,24.72,-29.90,-4.57,1.29
25.740179,-0.0063,-1.0649,0.2656,71.78,-23.93,26.92,-31.81,-4.70,2.36
25.740179,-0.2515,-0.9614,0.4604,43.46,-30.82,18.62,-33.83,-4.86,3.44
25.768885,-0.3486,-0.9243,0.4004,11.05,-34.48,-5.74,-36.16,-5.08,4.19
25.768885,-0.1753,-1.0732,0.1934,-5.00,-35.58,-23.80,-38.69,-5.37,4.53
25.801156,0.0952,-1.1812,0.0562,-6.65,-38.39,-19.65,-41.23,-5.69,4.77
25.801156,0.1367,-1.2349,0.0400,1.65,-37.84,-3.54,-43.62,-5.98,5.31
25.861597,0.0693,-1.2129,0.0435,14.22,-30.27,7.75,-45.70,-6.08,6.08
25.861597,0.0479,-1.1943,0.0518,26.18,-23.50,15.81,-47.43,-5.97,6.89
25.891527,0.0615,-1.1904,0.0479,37.11,-20.32,26.12,-48.82,-5.67,7.75
25.891527,-0.1060,-1.0933,0.2026,42.24,-21.48,33.08,-49.93,-5.25,8.75
25.919783,-0.2959,-0.9878,0.3091,36.87,-16.78,25.09,-50.88,-4.71,9.60
25.919783,-0.3057,-1.0200,0.3447,25.63,-16.48,5.80,-51.79,-4.20,10.10
25.979603,-0.0718,-1.0952,0.3438,13.79,-16.97,-0.06,-52.76,-3.80,10.31
25.979603,-0.0991,-1.1074,0.2915,5.49,-17.82,4.09,-53.81,-3.39,10.54
26.009026,-0.1484,-1.0635,0.2847,-0.61,-15.81,0.85,-54.90,-2.98,10.75
26.009026,-0.0732,-1.1172,0.2310,-2.69,-10.38,-1.22,-55.99,-2.58,10.82
26.039580,-0.0093,-1.1353,0.1665,2.56,-8.06,3.72,-56.96,-2.15,10.87
26.039580,-0.0981,-1.0591,0.1787,7.26,-7.32,7.45,-57.79,-1.69,10.99
26.100052,-0.2056,-0.9814,0.2910,5.37,-4.82,0.49,-58.52,-1.25,11.06
26.100052,-0.1099,-1.0024,0.2651,-2.08,-2.08,-5.86,-59.29,-0.88,10.94
26.128849,-0.1216,-1.5029,0.3311,-1.65,0.37,-5.25,-60.08,-0.58,10.80
26.128849,0.0928,-0.9590,0.2817,-11.05,-3.85,3.36,-1.50,0.77,0.01
26.159555,-0.1343,-0.9634,0.1616,-16.60,-9.52,4.76,-1.83,0.60,0.13
26.159555,-0.1743,-0.9785,0.0991,-12.27,-6.90,-5.31,-2.24,0.43,0.12
26.219624,-0.0176,-1.0303,0.1191,-3.66,-1.65,-5.68,-2.62,0.38,-0.01
26.219624,-0.0718,-0.9663,0.2241,-2.56,-2.01,-3.17,-3.05,0.38,-0.08
26.250080,-0.1064,-0.9478,0.2441,-7.14,-1.77,-5.74,-3.74,0.39,-0.16
26.250080,-0.0303,-0.9570,0.2271,-12.33,-4.46,-4.70,-4.73,0.39,-0.26
26.278804,-0.0840,-0.9482,0.2080,-17.03,-5.19,-7.45,-6.07,0.36,-0.37
26.278804,-0.0532,-1.0024,0.1533,-17.09,-2.08,-7.63,-7.72,0.38,-0.52
26.339671,-0.0576,-0.9961,0.1167,-14.10,-0.49,-6.23,-9.62,0.44,-0.63
26.339671,-0.0503,-0.9839,0.1479,-14.22,-1.10,-6.04,-11.77,0.53,-0.74
26.368922,-0.0430,-0.9854,0.1445,-14.40,-1.95,-5.55,-14.18,0.60,-0.84
26.368922,-0.1001,-0.9644,0.1602,-15.81,-1.89,-7.14,-16.83,0.67,-0.94
26.399891,-0.1265,-0.9766,0.1191,-15.87,2.26,-13.31,-19.69,0.78,-1.14
26.399891,-0.1162,-0.9810,0.0820,-14.40,4.33,-18.49,-22.69,0.93,-1.48
26.459669,-0.0010,-1.0181,0.0601,-10.86,7.93,-20.69,-25.77,1.12,-1.94
26.459669,-0.0244,-0.9731,0.1553,-11.72,2.08,-18.37,-28.91,1.21,-2.36
26.488903,0.0708,-1.0005,0.2197,-18.68,-3.42,-14.89,-32.12,1.16,-2.67
26.488903,0.1753,-1.0469,0.0073,-20.45,-8.97,-0.31,-35.44,1.01,-2.72
26.549641,0.0073,-1.0381,-0.0054,-14.40,-2.93,1.71,-38.69,0.86,-2.57
26.549641,0.0503,-1.0552,-0.0479,-4.64,-0.18,3.54,-41.75,0.79,-2.48
26.578924,-0.0591,-1.0054,0.0586,-0.18,0.24,3.42,-44.58,0.76,-2.36
26.578924,-0.0903,-0.9756,0.0913,-0.06,0.79,-0.73,-47.25,0.75,-2.31
26.609723,-0.0137,-0.9824,0.1338,-3.72,-1.28,-2.62,-49.81,0.72,-2.31
26.609723,0.0093,-0.9639,0.1411,-8.00,-5.68,0.49,-52.28,0.68,-2.26
26.669780,-0.0386,-0.9570,0.1714,-15.81,-8.85,0.85,-54.70,0.62,-2.10
26.669780,-0.0884,-1.0479,-0.0229,-13.79,-9.58,-1.28,-57.06,0.55,-1.93
26.700604,0.0205,-1.0098,0.0405,-8.12,-9.28,-0.92,-59.17,0.49,-1.79
26.700604,-0.0015,-1.0283,-0.0020,-5.68,-6.41,0.00,-61.12,0.45,-1.64
26.730125,0.0088,-1.0054,0.0332,-0.67,-4.70,0.61,-62.87,0.45,-1.54
26.730125,-0.0176,-0.9868,0.1079,-2.32,-6.04,1.04,-64.47,0.45,-1.41
26.789669,-0.0312,-0.9907,0.1118,-4.21,-6.41,0.12,-65.99,0.46,-1.28
26.789669,-0.0518,-0.9814,0.0942,-5.80,-7.87,-0.67,-67.42,0.46,-1.15
26.818876,-0.0259,-0.9990,0.0737,-5.68,-6.71,-1.77,-68.76,0.46,-1.03
26.818876,-0.0039,-1.0010,0.0728,-5.07,-1.04,-2.75,-70.00,0.47,-0.99
26.849590,0.0264,-1.0049,0.0483,-4.52,0.00,-1.28,-71.14,0.49,-1.01
26.849590,-0.0288,-1.0088,0.0020,-2.81,-1.95,-0.61,-72.20,0.53,-1.00
26.909740,0.0088,-1.0166,0.0010,0.98,-0.06,0.00,-73.14,0.56,-0.98
26.909740,-0.0122,-1.0005,0.0449,2.75,0.24,0.31,-73.95,0.60,-0.98
26.969785,-0.0176,-0.9976,0.0444,2.38,-3.48,0.98,-74.70,0.65,-0.95
26.969785,-0.0215,-0.9854,0.0879,0.37,-9.40,1.53,-1.46,0.76,0.00
26.973805,-0.0068,-0.9990,0.0698,-0.12,-5.74,0.92,-1.49,0.60,0.03
26.973805,0.0039,-1.0010,0.0669,1.10,-0.55,0.85,-1.59,0.54,0.04
27.029607,-0.0542,-0.9824,0.0977,0.61,0.43,0.24,-1.81,0.55,0.06
27.029607,-0.0259,-0.9800,0.1177,-3.05,0.49,-2.01,-2.24,0.57,0.04
27.058899,0.0000,-1.0137,0.0078,-2.69,0.37,-1.22,-2.92,0.59,0.01
27.058899,0.0059,-1.0190,0.0171,0.37,0.12,-0.18,-3.83,0.61,0.00
27.089682,0.0352,-0.9897,0.0303,0.37,5.43,-1.53,-4.96,0.65,-0.01
27.089682,0.0127,-1.0195,0.0034,2.81,5.13,1.28,-6.37,0.78,-0.02
27.149667,-0.0278,-0.9858,0.0459,4.58,3.66,0.43,-8.00,0.86,0.00
27.149667,-0.0229,-0.9897,0.0991,2.08,1.10,1.83,-9.93,0.92,0.01
27.178885,-0.0278,-0.9980,0.0806,2.38,1.83,0.24,-12.14,0.97,0.01
27.178885,-0.0352,-1.0005,0.0664,2.14,-0.37,1.04,-14.58,1.03,0.01
27.209927,-0.0195,-0.9800,0.0889,1.16,-2.75,0.00,-17.23,1.04,0.02
27.209927,-0.0137,-0.9819,0.1133,-1.59,-0.79,-0.24,-20.08,1.05,0.01
27.270162,-0.0278,-0.9932,0.0737,-1.59,2.20,-0.79,-23.07,1.13,-0.02
27.270162,0.0000,-1.0015,0.0596,-1.71,2.44,-0.24,-26.14,1.23,-0.09
27.299184,0.0112,-0.9937,0.0469,-2.14,2.56,-2.01,-29.25,1.30,-0.15
27.299184,0.0029,-1.0176,0.0317,-0.98,1.59,1.71,-32.37,1.34,-0.19
27.328878,-0.0176,-0.9951,0.0664,1.46,9.77,-1.53,-35.40,1.46,-0.29
27.328878,-0.0327,-0.9912,0.0669,0.24,9.46,0.00,-38.35,1.63,-0.44
27.389115,-0.0186,-1.0068,0.0342,1.40,6.96,0.06,-41.22,1.77,-0.59
27.389115,-0.0386,-0.9980,0.0537,2.81,3.72,0.61,-43.98,1.87,-0.71
27.418884,-0.0112,-0.9858,0.1055,1.83,3.54,-0.43,-46.58,1.93,-0.81
27.418884,-0.0264,-0.9839,0.1069,-0.49,3.60,0.43,-49.06,1.99,-0.91
27.448914,-0.0449,-0.9893,0.0889,-1.77,4.64,-0.67,-51.43,2.07,-1.04
27.448914,-0.0229,-0.9946,0.0723,-2.32,5.13,-0.98,-53.67,2.14,-1.19
27.509854,-0.0195,-1.0024,0.0376,-1.83,5.13,-0.98,-55.78,2.20,-1.36
27.509854,-0.0347,-1.0005,0.0332,-0.67,1.53,-0.55,-57.75,2.24,-1.48
27.540253,-0.0317,-0.9966,0.0640,0.18,1.34,-0.43,-59.57,2.25,-1.57
27.540253,-0.0195,-0.9922,0.0776,-0.31,4.03,-1.10,-61.25,2.29,-1.69
27.568930,-0.0117,-0.9971,0.0640,-0.55,5.07,-1.34,-62.83,2.32,-1.85
27.568930,0.0142,-1.0059,0.0415,-0.92,2.01,-0.31,-64.31,2.34,-1.98
27.629799,-0.0112,-0.9834,0.0962,-1.28,0.00,1.16,-65.69,2.32,-2.02
27.629799,-0.0327,-1.0034,0.0117,-0.49,0.24,-0.24,-66.98,2.32,-2.05
27.658976,-0.0151,-1.0024,0.0459,2.01,0.37,-0.06,-68.14,2.30,-2.09
27.658976,-0.0151,-0.9883,0.1064,0.85,2.69,-0.67,-69.21,2.29,-2.16
