t,ax,ay,az,gx,gy,gz,wx,wy,wz
0.028780,-0.0166,-0.9971,0.0620,-0.06,0.00,-0.06,-87.82,1.73,1.82
0.028780,-0.0161,-0.9971,0.0620,0.00,0.00,-0.06,-87.82,1.73,1.82
0.059253,-0.0161,-0.9961,0.0635,0.00,0.00,-0.12,-87.82,1.73,1.82
0.059253,-0.0171,-0.9961,0.0645,0.00,0.00,-0.12,-87.82,1.73,1.82
0.118669,-0.0161,-0.9976,0.0635,-0.12,0.00,-0.12,-87.82,1.73,1.82
0.118669,-0.0156,-0.9976,0.0605,0.00,0.00,-0.12,-87.82,1.73,1.82
0.148578,-0.0156,-0.9971,0.0630,0.00,0.00,0.00,-87.82,1.73,1.82
0.148578,-0.0171,-0.9966,0.0654,0.00,0.00,0.00,-87.82,1.73,1.82
0.178812,-0.0156,-0.9966,0.0649,-0.06,0.00,-0.12,-87.82,1.73,1.82
0.178812,-0.0171,-0.9980,0.0605,-0.06,0.00,-0.06,-87.82,1.73,1.82
0.239404,-0.0161,-0.9976,0.0625,0.00,0.00,-0.12,-87.82,1.73,1.82
0.239404,-0.0166,-0.9971,0.0654,0.00,0.00,-0.06,-87.82,1.73,1.82
0.269159,-0.0156,-0.9961,0.0654,-0.06,0.00,-0.12,-87.82,1.73,1.82
0.269159,-0.0166,-0.9966,0.0625,-0.06,0.00,-0.12,-87.82,1.73,1.82
0.299914,-0.0161,-0.9976,0.0625,-0.06,0.00,0.00,-87.82,1.73,1.82
0.299914,-0.0171,-0.9966,0.0645,-0.06,0.00,-0.06,-87.82,1.73,1.82
0.359106,-0.0171,-0.9971,0.0645,-0.06,0.00,-0.12,-87.82,1.73,1.82
0.359106,-0.0161,-0.9966,0.0625,-0.06,0.00,-0.12,-87.82,1.73,1.82
0.389211,-0.0171,-0.9980,0.0620,0.00,0.00,0.00,-87.82,1.73,1.82
0.389211,-0.0171,-0.9966,0.0640,0.00,0.00,-0.06,-87.82,1.73,1.82
0.448900,-0.0166,-0.9971,0.0649,-0.06,0.00,-0.06,-87.82,1.73,1.82
0.448900,-0.0161,-0.9971,0.0635,-0.06,0.00,-0.12,-87.81,1.73,1.82
0.504286,-0.0166,-0.9976,0.0620,0.00,0.00,-0.06,-87.81,1.73,1.82
0.504286,-0.0156,-0.9971,0.0620,0.00,0.00,-0.06,-87.81,1.73,1.82
0.508833,-0.0171,-0.9956,0.0640,0.00,0.00,-0.06,-87.81,1.73,1.82
0.508833,-0.0166,-0.9966,0.0640,-0.06,0.00,-0.06,-87.81,1.73,1.82
0.573807,-0.0176,-0.9966,0.0625,-0.12,0.00,-0.06,-87.81,1.73,1.82
0.573807,-0.0156,-0.9971,0.0625,0.00,0.00,-0.06,-87.81,1.73,1.82
0.598869,-0.0166,-0.9961,0.0649,0.00,0.00,-0.06,-87.81,1.73,1.82
0.598869,-0.0161,-0.9966,0.0635,-0.12,0.00,-0.06,-87.81,1.73,1.82
0.628678,-0.0161,-0.9976,0.0625,-0.06,0.00,-0.12,-87.81,1.73,1.82
0.628678,-0.0156,-0.9971,0.0625,0.00,0.00,-0.06,-87.81,1.73,1.82
0.689346,-0.0161,-0.9966,0.0635,0.00,0.00,-0.06,-87.81,1.73,1.82
0.689346,-0.0166,-0.9971,0.0645,-0.06,0.00,-0.18,-87.81,1.73,1.82
0.719179,-0.0171,-0.9961,0.0620,0.00,0.00,-0.06,-87.81,1.73,1.82
0.719179,-0.0161,-0.9961,0.0610,-0.06,0.00,-0.12,-87.81,1.73,1.82
0.749059,-0.0166,-0.9961,0.0635,0.00,0.00,-0.06,-87.82,1.73,1.82
0.749059,-0.0161,-0.9971,0.0630,-0.06,0.00,-0.12,-87.82,1.73,1.82
0.808973,-0.0161,-0.9966,0.0630,-0.06,0.00,0.00,-87.82,1.73,1.82
0.808973,-0.0161,-0.9971,0.0630,0.00,0.00,-0.06,-87.82,1.73,1.82
0.839062,-0.0161,-0.9966,0.0630,0.00,0.00,0.00,-87.82,1.73,1.82
0.839062,-0.0176,-0.9966,0.0625,0.00,0.00,-0.06,-87.82,1.73,1.82
0.892080,-0.0161,-0.9971,0.0630,0.00,0.00,-0.06,-87.82,1.73,1.82
0.892080,-0.0166,-0.9971,0.0625,-0.06,0.00,-0.06,-87.82,1.73,1.82
0.929241,-0.0156,-0.9971,0.0630,0.00,0.00,-0.06,-87.82,1.73,1.82
0.929241,-0.0166,-0.9961,0.0635,-0.06,0.00,-0.06,-87.82,1.73,1.82
0.958969,-0.0166,-0.9971,0.0630,0.00,0.00,-0.12,-87.82,1.73,1.82
0.958969,-0.0166,-0.9971,0.0625,0.00,0.00,-0.06,-87.82,1.73,1.82
0.989236,-0.0166,-0.9966,0.0645,0.00,0.00,-0.06,-87.82,1.73,1.82
0.989236,-0.0171,-0.9966,0.0625,0.00,0.00,-0.06,-87.82,1.73,1.82
1.049054,-0.0156,-0.9956,0.0630,0.00,0.00,-0.06,-87.82,1.73,1.82
1.049054,-0.0156,-0.9961,0.0625,-0.06,0.00,0.00,-87.82,1.73,1.82
1.080046,-0.0171,-0.9971,0.0596,0.00,0.00,-0.12,-87.82,1.73,1.82
1.080046,-0.0151,-0.9976,0.0625,0.00,0.00,-0.06,-87.82,1.73,1.82
1.110314,-0.0176,-0.9966,0.0635,0.00,0.00,-0.12,-87.82,1.73,1.82
1.110314,-0.0151,-0.9971,0.0625,-0.06,0.00,-0.12,-87.82,1.73,1.82
1.169020,-0.0171,-0.9966,0.0620,-0.06,0.00,-0.12,-87.82,1.73,1.82
1.169020,-0.0156,-0.9976,0.0630,0.00,0.00,-0.12,-87.82,1.73,1.82
1.198924,-0.0171,-0.9966,0.0645,0.00,0.00,-0.12,-87.82,1.73,1.82
1.198924,-0.0166,-0.9966,0.0640,-0.06,0.00,-0.12,-87.82,1.73,1.82
1.228766,-0.0166,-0.9966,0.0630,-0.06,0.00,-0.06,-87.82,1.73,1.82
1.228766,-0.0161,-0.9966,0.0645,0.00,0.00,0.00,-87.82,1.73,1.82
1.289021,-0.0176,-0.9966,0.0630,0.00,0.00,-0.06,-87.82,1.73,1.82
1.289021,-0.0161,-0.9961,0.0645,0.00,0.00,-0.12,-87.82,1.73,1.82
1.319836,-0.0171,-0.9956,0.0620,0.00,0.00,0.00,-87.82,1.73,1.82
1.319836,-0.0166,-0.9971,0.0620,0.00,0.00,-0.12,-87.82,1.73,1.82
1.348995,-0.0166,-0.9966,0.0640,0.00,0.00,0.00,-87.82,1.73,1.82
1.348995,-0.0161,-0.9966,0.0640,-0.06,0.00,-0.06,-87.82,1.73,1.82
1.408992,-0.0166,-0.9966,0.0640,-0.06,0.00,-0.12,-87.82,1.73,1.82
1.408992,-0.0166,-0.9966,0.0625,0.00,0.00,-0.12,-87.82,1.73,1.82
1.439002,-0.0161,-0.9971,0.0630,0.00,0.00,-0.06,-87.82,1.73,1.82
1.439002,-0.0171,-0.9966,0.0640,0.00,0.00,-0.12,-87.82,1.73,1.82
1.468996,-0.0161,-0.9966,0.0640,0.00,0.00,0.00,-87.82,1.73,1.82
1.468996,-0.0166,-0.9966,0.0635,-0.06,0.00,-0.12,-87.82,1.73,1.82
1.528773,-0.0161,-0.9971,0.0640,0.00,0.00,-0.12,-87.82,1.73,1.82
1.528773,-0.0166,-0.9971,0.0635,0.00,0.00,-0.06,-87.82,1.73,1.82
1.558760,-0.0171,-0.9971,0.0635,0.00,0.00,-0.12,-87.82,1.73,1.82
1.558760,-0.0171,-0.9971,0.0640,-0.06,0.00,-0.06,-87.82,1.73,1.82
1.589207,-0.0161,-0.9971,0.0635,0.00,0.00,-0.06,-87.82,1.73,1.82
1.589207,-0.0171,-0.9971,0.0640,0.00,0.00,-0.06,-87.82,1.73,1.82
1.649002,-0.0156,-0.9961,0.0630,-0.06,0.00,-0.06,-87.81,1.73,1.82
1.649002,-0.0161,-0.9976,0.0630,-0.06,0.00,-0.06,-87.81,1.73,1.82
1.679036,-0.0161,-0.9966,0.0630,0.00,0.00,-0.12,-87.81,1.73,1.82
1.679036,-0.0171,-0.9966,0.0640,0.00,0.00,-0.12,-87.81,1.73,1.82
1.709073,-0.0166,-0.9966,0.0635,0.00,0.00,-0.12,-87.81,1.73,1.82
1.709073,-0.0166,-0.9971,0.0630,-0.06,0.00,-0.06,-87.81,1.73,1.82
1.768943,-0.0161,-0.9961,0.0625,-0.06,0.00,-0.06,-87.81,1.73,1.82
1.768943,-0.0161,-0.9971,0.0630,0.00,0.00,-0.12,-87.81,1.73,1.82
1.799244,-0.0166,-0.9976,0.0625,0.00,0.00,-0.12,-87.81,1.73,1.82
1.799244,-0.0161,-0.9971,0.0630,0.00,0.00,-0.12,-87.81,1.73,1.82
1.858942,-0.0171,-0.9971,0.0625,0.00,0.00,-0.06,-87.81,1.73,1.82
1.858942,-0.0166,-0.9971,0.0635,-0.06,0.00,-0.06,-87.82,1.73,1.82
1.889246,-0.0161,-0.9956,0.0635,0.00,0.00,-0.06,-87.81,1.73,1.82
1.889246,-0.0156,-0.9961,0.0625,0.00,0.00,-0.12,-87.81,1.73,1.82
1.919131,-0.0166,-0.9966,0.0625,-0.06,0.00,-0.06,-87.82,1.73,1.82
1.919131,-0.0161,-0.9971,0.0615,0.00,0.00,-0.12,-87.82,1.73,1.82
1.978987,-0.0171,-0.9961,0.0625,-0.06,0.06,-0.06,-87.82,1.73,1.82
1.978987,-0.0156,-0.9966,0.0630,-0.06,0.00,-0.12,-87.82,1.73,1.82
2.009021,-0.0161,-0.9971,0.0625,0.00,0.00,-0.12,-87.82,1.73,1.82
2.009021,-0.0161,-0.9971,0.0630,0.00,0.00,-0.06,-87.82,1.73,1.82
2.038964,-0.0166,-0.9961,0.0620,0.00,0.00,-0.06,-87.82,1.73,1.82
2.038964,-0.0171,-0.9966,0.0625,0.00,0.00,0.00,-87.82,1.73,1.82
2.099416,-0.0161,-0.9976,0.0630,0.00,0.00,0.00,-87.82,1.73,1.82
2.099416,-0.0171,-0.9966,0.0630,0.00,0.00,-0.12,-87.82,1.73,1.82
2.129078,-0.0171,-0.9971,0.0625,-0.06,0.00,-0.12,-87.82,1.73,1.82
2.129078,-0.0166,-0.9966,0.0625,-0.06,0.00,-0.06,-87.82,1.73,1.82
2.158990,-0.0156,-0.9971,0.0620,0.00,0.00,-0.12,-87.82,1.73,1.82
2.158990,-0.0200,-1.0073,0.0278,0.24,-0.12,-0.18,-87.82,1.73,1.82
2.221870,-0.0464,-0.9946,0.0015,1.40,-9.89,1.04,-87.80,1.74,1.88
2.221870,-0.0586,-0.9985,0.0532,0.37,-19.23,0.73,-87.79,1.74,2.20
2.250135,0.0132,-0.9990,0.0723,1.46,-9.58,0.61,-87.76,1.74,2.50
2.250135,-0.0195,-0.9912,0.0742,1.10,-4.46,0.92,-87.73,1.74,2.61
2.278996,-0.0264,-0.9805,0.1270,-0.98,-12.45,0.06,-87.71,1.74,2.80
2.278996,0.0151,-0.9961,0.0894,-3.17,-9.77,0.98,-87.76,1.74,3.02
2.339033,0.0215,-0.9990,0.0688,-5.31,-14.89,1.40,-87.84,1.74,3.28
2.339033,-0.0527,-1.0073,0.0571,-0.18,2.38,-0.18,-87.90,1.76,3.41
2.369040,0.0737,-1.0195,0.0034,1.28,-5.07,2.20,-87.88,1.76,3.44
2.369040,-0.0527,-0.9888,0.0581,2.26,-5.07,1.34,-87.84,1.81,3.55
2.399609,-0.0239,-0.9922,0.0581,1.28,-3.85,2.08,-87.80,1.83,3.65
2.399609,0.0049,-1.0083,0.0200,1.83,-2.99,1.16,-87.78,1.86,3.71
2.459039,0.0005,-1.0098,0.0127,4.21,-4.27,2.44,-87.71,1.90,3.79
2.459039,0.0059,-1.0024,0.0513,5.43,-5.19,2.56,-87.60,1.94,3.89
2.489311,-0.0220,-0.9976,0.0474,5.55,-4.21,2.14,-87.50,1.99,3.99
2.489311,-0.0288,-1.0015,0.0273,7.39,-4.70,2.62,-87.36,2.04,4.08
2.519805,-0.0332,-0.9976,0.0806,10.31,-1.59,1.16,-87.18,2.08,4.15
2.519805,-0.0347,-0.9683,0.1533,4.82,0.24,-0.61,-87.02,2.08,4.16
2.579100,-0.0239,-0.9824,0.1357,2.69,1.16,1.28,-86.95,2.09,4.15
2.579100,-0.0361,-0.9844,0.1279,-0.43,0.18,0.43,-86.93,2.11,4.13
2.609009,-0.0625,-0.9761,0.0928,-2.26,-1.89,1.53,-86.96,2.14,4.15
2.609009,-0.0283,-1.0034,0.0889,-3.05,-1.83,1.53,-87.02,2.16,4.19
2.638988,-0.0654,-1.0029,0.0571,-1.65,-2.50,0.00,-87.07,2.19,4.24
2.638988,-0.0220,-0.9932,0.1001,0.00,-0.73,0.37,-87.07,2.19,4.27
2.699890,-0.0400,-0.9927,0.0830,-0.67,0.37,-0.49,-87.08,2.19,4.27
2.699890,-0.0166,-0.9995,0.0684,-0.37,0.00,-0.31,-87.09,2.18,4.27
2.729022,-0.0117,-0.9980,0.0718,-0.24,-0.12,0.43,-87.10,2.18,4.27
2.729022,-0.0269,-0.9927,0.0840,-0.06,-0.06,0.31,-87.10,2.19,4.27
2.758928,-0.0410,-0.9893,0.0869,-0.85,0.55,-0.31,-87.11,2.20,4.27
2.758928,-0.0391,-0.9907,0.0830,-1.22,0.67,-0.98,-87.13,2.19,4.26
2.819729,-0.0239,-1.0005,0.0596,-1.40,0.00,-1.04,-87.16,2.17,4.25
2.819729,-0.0083,-1.0034,0.0532,-0.18,-0.12,-0.55,-87.17,2.15,4.25
2.849931,-0.0137,-1.0054,0.0435,1.34,-0.12,0.24,-87.16,2.15,4.25
2.849931,-0.0303,-0.9941,0.0781,1.89,-0.06,0.31,-87.12,2.16,4.26
2.879022,-0.0273,-0.9922,0.0840,1.71,-0.06,0.00,-87.08,2.17,4.26
2.879022,-0.0112,-0.9907,0.0967,0.79,-0.12,0.00,-87.06,2.17,4.26
2.939032,-0.0342,-0.9844,0.1089,-0.79,0.00,0.06,-87.06,2.18,4.26
2.939032,-0.0381,-0.9888,0.0908,-2.14,0.00,-0.92,-87.09,2.16,4.26
2.970635,-0.0122,-1.0078,0.0444,-1.40,0.00,-0.49,-87.13,2.15,4.26
2.970635,-0.0234,-1.0010,0.0557,0.12,-0.06,0.00,-87.14,2.15,4.26
3.000064,-0.0293,-1.0000,0.0581,0.79,-0.24,-0.24,-87.13,2.15,4.27
3.000064,-0.0161,-0.9922,0.0879,0.73,-0.37,-0.24,-87.11,2.15,4.27
3.059006,-0.0195,-0.9912,0.0952,-0.43,-0.37,0.00,-87.11,2.15,4.28
3.059006,-0.0444,-0.9941,0.0737,-0.79,-0.18,-0.61,-87.12,2.14,4.29
3.089307,-0.0127,-1.0049,0.0488,0.18,-0.24,-1.04,-87.13,2.13,4.29
3.089307,-0.0093,-1.0024,0.0576,1.59,-0.31,-0.06,-87.11,2.11,4.30
3.119813,-0.0244,-0.9912,0.0874,1.59,-0.37,0.00,-87.07,2.11,4.31
3.119813,-0.0298,-0.9907,0.0913,0.85,-0.37,-0.24,-87.04,2.11,4.31
3.179010,-0.0181,-0.9873,0.1162,-0.55,-0.18,-0.18,-87.04,2.11,4.32
3.179010,-0.0381,-0.9819,0.1191,-2.69,-0.06,-0.37,-87.07,2.11,4.32
3.209076,-0.0059,-0.9941,0.0908,-4.15,0.18,-0.67,-87.14,2.10,4.32
3.209076,0.0015,-1.0088,0.0386,-3.72,2.75,0.18,-87.23,2.10,4.29
3.268978,-0.0352,-1.0112,0.0103,-1.22,2.08,-0.06,-87.28,2.11,4.24
3.268978,-0.0176,-1.0068,0.0449,1.53,1.04,0.37,-87.27,2.11,4.21
3.299770,-0.0488,-0.9976,0.0571,2.62,1.34,-0.18,-87.23,2.12,4.18
3.299770,-0.0303,-0.9907,0.0840,2.75,0.67,-1.22,-87.17,2.11,4.16
3.328972,-0.0190,-0.9985,0.0840,1.89,0.49,-0.61,-87.12,2.09,4.15
3.328972,-0.0474,-1.0029,0.0537,3.30,-2.56,-0.18,-87.07,2.09,4.17
3.389357,-0.0479,-1.0190,0.0596,6.77,-1.71,-1.34,-86.98,2.07,4.22
3.389357,-0.0757,-1.0464,0.0127,15.20,1.10,-7.08,-86.76,1.99,4.21
3.419021,0.0107,-1.1538,0.0181,28.32,2.81,-8.54,-86.32,1.83,4.15
3.419021,0.1436,-1.2480,0.1348,34.79,4.58,-3.54,-85.66,1.71,4.06
3.450244,0.1963,-1.3018,0.2227,30.03,3.36,8.48,-85.00,1.77,3.99
3.450244,0.1602,-1.3203,0.2554,18.62,1.22,22.95,-84.51,2.10,3.98
3.509275,0.0435,-1.3125,0.2354,5.55,-0.61,32.17,-84.28,2.66,4.05
3.509275,-0.0859,-1.3364,0.1860,-3.11,0.37,32.17,-84.27,3.32,4.14
3.539037,-0.1411,-1.3848,0.1016,-1.65,3.36,27.59,-84.33,3.92,4.17
3.539037,-0.1528,-1.3823,0.1313,1.71,7.08,23.50,-84.32,4.44,4.14
3.568980,-0.1719,-1.3745,0.1812,1.83,12.15,18.62,-84.29,4.88,3.99
3.568980,-0.1738,-1.3540,0.2529,-3.42,15.99,12.39,-84.31,5.22,3.75
3.629070,-0.1382,-1.3486,0.2705,-13.00,18.01,7.14,-84.51,5.45,3.43
3.629070,-0.0996,-1.3179,0.2295,-21.24,16.17,6.71,-84.89,5.63,3.09
3.658999,-0.1309,-1.2676,0.2158,-28.63,12.88,8.18,-85.41,5.82,2.83
3.658999,-0.1880,-1.2002,0.2007,-35.10,13.12,6.47,-86.07,5.99,2.59
3.689323,-0.1777,-1.2061,0.1411,-39.25,15.26,2.26,-86.85,6.11,2.31
3.689323,-0.1460,-1.2046,0.0083,-34.61,16.60,-0.37,-87.64,6.15,1.98
3.749699,-0.1719,-1.1436,-0.0527,-24.90,11.23,-2.93,-88.25,6.14,1.70
3.749699,-0.1523,-1.1470,0.0435,-18.37,10.38,-10.01,-88.69,6.02,1.50
3.779056,-0.0620,-1.1074,0.0239,-13.43,18.98,-14.47,-89.04,5.78,1.18
3.779056,0.0303,-1.0850,-0.1274,-4.21,23.07,-11.60,-89.26,5.53,0.74
3.809000,0.0435,-1.0200,-0.1758,10.07,22.52,-3.54,-89.23,5.39,0.27
3.809000,-0.0322,-0.9224,-0.1021,20.32,20.87,2.93,-88.93,5.42,-0.16
3.868996,-0.0605,-0.9019,-0.0034,22.64,21.73,4.88,-88.53,5.52,-0.58
3.868996,-0.0366,-0.8955,0.0459,23.19,21.30,8.30,-88.10,5.68,-1.01
3.900545,-0.0801,-0.8354,0.0767,21.55,17.64,14.34,-87.69,5.94,-1.40
3.900545,-0.2124,-0.7808,0.1357,15.62,11.72,13.37,-87.34,6.25,-1.67
3.929000,-0.2480,-0.7930,0.1548,5.49,4.64,4.94,-87.14,6.45,-1.81
3.929000,-0.1938,-0.8174,0.1030,-1.53,-4.39,-0.73,-87.11,6.48,-1.81
3.989317,-0.1333,-0.7920,0.1240,-8.18,-10.19,-3.97,-87.19,6.42,-1.66
3.989317,-0.1113,-0.8037,0.1553,-15.62,-15.62,-3.97,-87.41,6.32,-1.40
4.018990,-0.0815,-0.8540,0.1548,-19.35,-14.10,-5.74,-87.75,6.20,-1.09
4.018990,0.0566,-0.8906,0.1323,-14.89,-7.63,-0.24,-88.07,6.11,-0.88
4.050661,-0.0098,-0.8027,0.1846,-14.77,-4.76,11.96,-88.34,6.24,-0.76
4.050661,-0.2197,-0.7246,0.1714,-21.61,-7.63,9.89,-88.69,6.48,-0.63
4.109048,-0.2681,-0.6865,0.0996,-26.37,-16.24,-1.83,-89.15,6.55,-0.39
4.109048,-0.1953,-0.6914,0.1177,-33.20,-24.54,-11.72,-89.71,6.39,0.02
4.139029,-0.0615,-0.7314,0.1016,-39.73,-27.47,-12.76,-90.40,6.12,0.55
4.139029,0.0303,-0.7764,0.0205,-41.26,-25.51,-7.57,-91.17,5.91,1.08
4.168998,0.0068,-0.7998,-0.0454,-34.48,-25.09,0.06,-91.89,5.84,1.59
4.168998,-0.0371,-0.7583,-0.0103,-29.05,-20.45,3.05,-92.47,5.88,2.05
4.228927,-0.0679,-0.7334,-0.0391,-24.78,-16.24,5.00,-92.98,5.98,2.42
4.228927,-0.0757,-0.7188,-0.0195,-21.73,-13.79,5.74,-93.41,6.10,2.71
4.259072,-0.0522,-0.7085,-0.0039,-21.06,-9.83,8.48,-93.81,6.25,2.94
4.259072,-0.0879,-0.6851,-0.0269,-22.46,-6.35,11.90,-94.22,6.47,3.09
4.289334,-0.1147,-0.6870,-0.0928,-20.20,-2.93,12.27,-94.65,6.72,3.18
4.289334,-0.1348,-0.7065,-0.0903,-14.40,1.22,9.77,-95.00,6.94,3.18
4.349011,-0.1211,-0.6938,-0.0371,-12.33,4.46,6.65,-95.26,7.10,3.10
4.349011,-0.0742,-0.6934,-0.0137,-13.98,8.61,6.65,-95.54,7.22,2.97
4.379024,-0.0757,-0.6655,-0.0347,-13.85,14.71,9.77,-95.84,7.37,2.71
4.379024,-0.1313,-0.6475,-0.0322,-14.95,15.20,11.66,-96.17,7.57,2.38
4.408970,-0.1504,-0.6172,0.0117,-18.92,17.94,11.11,-96.54,7.78,2.04
4.408970,-0.1328,-0.6265,-0.0273,-22.40,24.78,11.35,-97.02,7.96,1.58
4.468978,-0.1362,-0.6221,-0.1001,-21.85,25.88,10.93,-97.54,8.13,1.04
4.468978,-0.1489,-0.6172,-0.1431,-19.10,21.73,9.28,-98.01,8.29,0.54
4.499014,-0.1919,-0.6636,-0.1504,-15.62,20.14,3.11,-98.42,8.37,0.11
4.499014,-0.1724,-0.7144,-0.1621,-9.34,24.23,-7.32,-98.72,8.27,-0.31
4.529061,-0.1504,-0.7373,-0.2007,2.50,28.93,-16.72,-98.86,7.97,-0.82
4.529061,-0.1655,-0.6909,-0.1763,11.41,26.37,-24.84,-98.76,7.48,-1.33
4.589351,-0.1011,-0.7080,-0.0879,11.29,19.96,-31.13,-98.56,6.86,-1.71
4.589351,0.0073,-0.7798,-0.0039,5.43,17.94,-31.92,-98.42,6.19,-2.01
4.618869,0.0503,-0.7788,-0.0186,-5.80,16.36,-28.32,-98.44,5.54,-2.28
4.618869,0.0381,-0.7974,-0.1523,-14.34,11.84,-23.32,-98.68,5.00,-2.50
4.679010,0.0503,-0.8716,-0.2231,-13.98,10.86,-21.24,-98.99,4.54,-2.65
4.679010,0.1143,-0.9224,-0.3232,-3.11,12.45,-16.54,-99.18,4.13,-2.85
4.708976,0.1064,-0.9692,-0.2754,9.16,8.06,-8.67,-99.11,3.86,-3.01
4.708976,0.0869,-0.9800,-0.2451,17.33,7.93,-1.71,-98.85,3.74,-3.15
4.738944,-0.0054,-0.9648,-0.2656,26.31,5.55,2.26,-98.42,3.75,-3.30
4.738944,-0.0835,-1.0361,-0.1934,32.71,0.98,-5.00,-97.82,3.73,-3.36
4.798970,-0.0044,-1.0781,-0.1602,35.34,-1.53,-11.11,-97.12,3.54,-3.33
4.798970,0.0630,-1.1045,-0.1162,37.35,-3.05,-6.84,-96.39,3.37,-3.26
4.828992,0.0991,-1.1582,-0.0957,41.08,0.00,-0.98,-95.61,3.30,-3.22
4.828992,0.1284,-1.1650,-0.0796,47.73,0.24,10.99,-94.72,3.39,-3.24
4.859018,-0.0552,-1.1079,-0.0049,49.99,-2.93,22.09,-93.72,3.75,-3.22
4.859018,-0.2520,-1.0654,0.1611,38.64,-8.24,13.00,-92.81,4.13,-3.13
4.918928,-0.2847,-1.0371,0.2393,13.43,-13.67,-6.16,-92.28,4.20,-2.91
4.918928,-0.1353,-1.1372,0.1074,-8.97,-19.47,-20.75,-92.24,3.91,-2.56
4.948982,0.0000,-1.2080,-0.0181,-16.78,-21.97,-18.98,-92.51,3.49,-2.13
4.948982,-0.0029,-1.2183,-0.0898,-12.76,-18.80,-10.01,-92.80,3.22,-1.71
4.978891,-0.0322,-1.1953,-0.1743,-1.28,-16.05,-3.91,-92.93,3.10,-1.37
4.978891,-0.1030,-1.1523,-0.1440,9.40,-17.52,-2.93,-92.81,3.06,-1.03
5.038927,-0.0776,-1.1641,-0.0527,11.90,-17.27,-7.26,-92.57,2.96,-0.68
5.038927,-0.0063,-1.1133,-0.0239,9.70,-18.68,-4.58,-92.34,2.84,-0.32
5.068881,0.0015,-1.1001,0.0073,7.81,-19.17,0.12,-92.15,2.81,0.07
5.068881,-0.0200,-1.0898,-0.0498,6.84,-20.32,3.48,-91.99,2.86,0.46
5.099139,0.0010,-1.1729,-0.0688,11.35,-17.88,6.35,-91.81,2.96,0.85
5.099139,-0.0146,-1.1138,-0.1089,21.30,-14.10,12.94,-91.47,3.16,1.16
5.159054,-0.1255,-1.0981,-0.0215,29.48,-13.79,11.60,-90.92,3.43,1.44
5.159054,-0.2051,-1.0117,0.1504,22.40,-14.71,1.53,-90.37,3.56,1.72
5.189214,-0.1650,-1.0752,0.1333,8.42,-12.51,-8.97,-90.07,3.46,2.01
5.189214,-0.0176,-1.1523,0.0239,7.08,-8.42,-8.30,-89.92,3.26,2.20
5.219000,-0.0688,-1.0923,-0.0107,10.38,-10.01,-2.50,-89.74,3.16,2.37
5.219000,-0.1538,-1.0928,0.0107,12.70,-11.90,-7.57,-89.49,3.07,2.60
5.278935,-0.0708,-1.1104,0.0742,11.60,-12.15,-13.18,-89.23,2.84,2.83
5.278935,0.0566,-1.1035,0.1216,5.62,-12.21,-8.06,-89.05,2.60,3.07
5.309059,0.0059,-1.0781,0.0474,0.98,-12.76,0.00,-88.99,2.53,3.31
5.309059,-0.0908,-1.0669,0.0088,5.13,-12.27,-2.08,-88.93,2.52,3.57
5.338979,-0.0552,-1.0757,0.0220,12.08,-10.44,-6.29,-88.74,2.42,3.79
5.338979,0.0005,-1.0537,0.0732,16.42,-9.89,-3.48,-88.44,2.30,3.98
5.398753,-0.0522,-1.0312,0.1221,14.77,-9.64,-0.79,-88.11,2.26,4.18
5.398753,-0.0903,-1.0586,0.1182,10.93,-9.95,-4.09,-87.85,2.21,4.37
5.428991,-0.0312,-1.0767,0.1143,8.12,-9.03,-7.26,-87.66,2.08,4.56
5.428991,0.0288,-1.0811,0.1089,5.92,-7.32,-5.25,-87.52,1.93,4.71
5.459052,0.0337,-1.0967,0.0752,5.19,-5.80,-1.83,-87.41,1.86,4.83
5.459052,0.0518,-1.1162,0.0527,6.65,-8.06,1.34,-87.29,1.85,4.97
5.520329,0.0474,-1.0957,0.0757,7.75,-9.83,5.80,-87.13,1.91,5.16
5.520329,0.0039,-1.0728,0.1016,8.06,-8.97,7.51,-86.96,2.04,5.36
5.548995,-0.0376,-1.0469,0.1084,6.59,-8.24,6.71,-86.81,2.18,5.54
5.548995,-0.0874,-1.0522,0.1084,7.02,-5.00,2.99,-86.68,2.27,5.69
5.579026,-0.0591,-1.0830,0.0825,8.85,-2.44,-1.28,-86.51,2.27,5.76
5.579026,0.0015,-1.0923,0.1099,7.81,-4.46,-0.12,-86.34,2.25,5.82
5.639007,-0.0098,-1.0938,0.1631,2.99,-5.74,3.36,-86.23,2.27,5.93
5.639007,-0.0513,-1.0918,0.1294,-1.53,-5.86,4.27,-86.21,2.35,6.05
5.668952,-0.0601,-1.1323,0.0825,-1.53,-5.68,2.81,-86.25,2.41,6.17
5.668952,-0.0361,-1.1528,0.1099,1.59,-4.03,2.93,-86.24,2.46,6.28
5.698895,-0.0415,-1.1475,0.1641,-0.06,-2.56,3.91,-86.22,2.53,6.35
5.698895,-0.0298,-1.1396,0.1567,-5.00,-2.50,5.07,-86.26,2.61,6.41
5.758988,-0.0571,-1.1543,0.1035,-6.59,-1.77,6.29,-86.39,2.73,6.47
5.758988,-0.0933,-1.2021,0.0576,-1.34,0.49,4.03,-86.47,2.84,6.49
5.789443,-0.0527,-1.2246,0.0898,4.09,3.42,2.01,-86.43,2.90,6.44
5.789443,-0.0186,-1.1958,0.1318,2.93,4.76,4.27,-86.36,2.97,6.37
5.818981,-0.0293,-1.1880,0.1187,-0.67,6.71,7.26,-86.34,3.10,6.26
5.818981,-0.1113,-1.1675,0.0679,-0.55,4.58,6.96,-86.36,3.27,6.15
5.878980,-0.1748,-1.1348,0.1294,-2.87,3.60,0.00,-86.39,3.35,6.09
5.878980,-0.1626,-1.1362,0.1416,-7.63,4.27,-8.00,-86.51,3.27,6.00
5.908917,-0.0874,-1.1445,0.0513,-8.48,8.91,-12.82,-86.69,3.07,5.86
5.908917,-0.0410,-1.1963,-0.0522,0.37,15.01,-12.88,-86.79,2.83,5.59
5.939027,-0.0430,-1.2417,-0.1211,17.15,20.14,-13.06,-86.62,2.60,5.22
5.939027,-0.0547,-1.2573,-0.0581,32.78,24.05,-16.36,-86.11,2.36,4.74
5.998939,-0.0420,-1.2334,0.0898,37.05,21.73,-18.80,-85.40,2.05,4.25
5.998939,0.0352,-1.2271,0.2173,27.53,17.76,-18.07,-84.75,1.72,3.81
6.029317,0.0664,-1.1885,0.2705,12.57,13.18,-12.21,-84.36,1.46,3.47
6.029317,-0.0020,-1.1567,0.2769,-5.31,7.87,-7.51,-84.29,1.30,3.25
6.089269,-0.0142,-1.2363,0.1895,-15.50,6.23,-8.42,-84.53,1.16,3.09
6.089269,0.0093,-1.2441,0.0967,-14.47,7.26,-9.77,-84.85,1.00,2.94
6.118985,0.0366,-1.2231,0.0859,-9.58,7.08,-8.61,-85.08,0.83,2.77
6.118985,0.0718,-1.1758,0.0645,-7.26,6.16,-5.37,-85.25,0.71,2.63
6.149024,0.0962,-1.1177,0.0791,-4.21,5.98,0.79,-85.36,0.68,2.50
6.149024,0.0264,-1.0117,0.1499,-5.07,8.79,8.00,-85.44,0.80,2.37
6.209023,-0.0142,-0.9883,0.1812,-11.23,9.52,9.77,-85.60,1.00,2.20
6.209023,0.0156,-0.9683,0.1699,-18.68,7.81,12.51,-85.91,1.24,2.05
6.238924,0.0093,-0.9692,0.1069,-18.01,7.69,16.66,-86.30,1.55,1.92
6.238924,-0.0410,-0.9517,0.1221,-12.94,5.19,17.03,-86.60,1.91,1.82
6.269186,-0.0591,-0.9175,0.1641,-12.45,4.33,15.99,-86.85,2.25,1.76
6.269186,-0.0273,-0.9062,0.1279,-12.08,3.85,16.05,-87.10,2.57,1.69
6.329682,-0.0527,-0.8677,0.1504,-12.51,-0.98,18.55,-87.34,2.93,1.69
6.329682,-0.0889,-0.8379,0.2070,-17.15,-2.81,17.64,-87.63,3.29,1.76
6.360161,-0.1089,-0.8413,0.1270,-19.10,0.00,13.79,-88.00,3.61,1.81
6.360161,-0.1396,-0.8408,-0.0137,-13.06,-0.12,8.48,-88.33,3.83,1.82
6.389300,-0.0835,-0.8462,0.0312,-7.57,-5.25,2.62,-88.52,3.94,1.88
6.389300,0.0342,-0.8281,0.1147,-9.70,-9.52,5.98,-88.67,4.00,2.04
6.448979,0.0435,-0.8237,0.1094,-15.93,-10.25,12.27,-88.92,4.19,2.25
6.448979,0.0029,-0.8145,0.0400,-16.78,-11.05,15.93,-89.24,4.47,2.48
6.478994,-0.0190,-0.8120,-0.0088,-10.13,-6.53,15.50,-89.51,4.78,2.66
6.478994,0.0034,-0.8008,0.0698,-5.31,-4.58,17.40,-89.63,5.11,2.79
6.508963,-0.0117,-0.7979,0.0474,-5.92,-6.77,21.61,-89.73,5.50,2.91
6.508963,-0.1118,-0.7920,0.0864,-4.70,-8.79,20.20,-89.82,5.93,3.09
6.569304,-0.1162,-0.7959,0.1685,-6.04,-5.92,14.47,-89.90,6.27,3.25
6.569304,-0.1006,-0.7822,0.1714,-11.11,-1.34,12.02,-90.07,6.53,3.33
6.599003,-0.1372,-0.7900,0.0933,-14.16,-1.71,9.09,-90.32,6.75,3.35
6.599003,-0.1226,-0.7744,0.1045,-17.27,-2.81,6.16,-90.63,6.89,3.41
6.629000,-0.1260,-0.7544,0.0273,-20.51,-4.58,4.94,-91.01,7.01,3.48
6.629000,-0.1499,-0.7349,-0.0269,-18.74,-4.21,1.95,-91.38,7.08,3.58
6.689374,-0.1655,-0.7061,-0.0562,-17.09,-5.31,-1.28,-91.73,7.09,3.66
6.689374,-0.1914,-0.6641,-0.0190,-19.47,-9.58,-5.19,-92.07,7.03,3.82
6.719316,-0.1865,-0.6743,-0.0347,-21.97,-10.01,-10.44,-92.47,6.87,4.03
6.719316,-0.1475,-0.7139,-0.0278,-20.69,-9.22,-14.83,-92.87,6.62,4.23
6.748981,-0.0537,-0.7446,-0.0215,-20.75,-5.55,-13.61,-93.27,6.33,4.38
6.748981,-0.0435,-0.7622,-0.0532,-18.31,0.55,-8.79,-93.66,6.12,4.45
6.808976,-0.0649,-0.7666,-0.1401,-10.44,9.95,-5.80,-93.96,5.98,4.34
6.808976,-0.0830,-0.7437,-0.1172,-1.40,15.44,-5.62,-94.09,5.86,4.08
6.839015,-0.0723,-0.7437,-0.1133,0.43,17.03,-4.58,-94.11,5.73,3.75
6.839015,-0.0874,-0.7754,-0.1499,2.62,15.93,-3.72,-94.11,5.65,3.42
6.869450,-0.0522,-0.7964,-0.1812,9.89,16.36,-2.44,-94.02,5.56,3.10
6.869450,-0.0684,-0.7827,-0.1104,14.95,15.20,-0.55,-93.78,5.53,2.79
6.929039,-0.0796,-0.7881,-0.0557,15.26,13.98,-0.55,-93.49,5.51,2.49
6.929039,-0.1099,-0.8032,-0.0366,14.59,11.17,-1.10,-93.21,5.49,2.24
6.958980,-0.1567,-0.8042,0.0664,9.89,5.31,-5.37,-92.97,5.43,2.07
6.958980,-0.2026,-0.7690,0.1812,-4.52,-4.39,-12.88,-92.91,5.25,2.07
6.989253,-0.1226,-0.8457,0.2119,-20.81,-6.84,-23.32,-93.18,4.89,2.22
6.989253,0.1255,-0.9595,-0.0371,-21.61,0.00,-19.71,-93.63,4.43,2.30
7.048992,0.1641,-0.9907,-0.1646,-7.39,6.16,-2.81,-93.92,4.21,2.25
7.048992,-0.0205,-0.8354,-0.0649,1.59,13.24,9.28,-93.96,4.30,2.04
7.078963,-0.1860,-0.7778,0.0479,-4.39,18.92,6.71,-93.99,4.47,1.72
7.078963,-0.1997,-0.8257,-0.0967,-7.93,19.71,-2.50,-94.16,4.49,1.30
7.108967,-0.1387,-0.8896,-0.1338,-4.76,11.35,-9.95,-94.30,4.34,0.99
7.108967,-0.1108,-0.9102,-0.0532,-7.08,1.40,-16.60,-94.41,4.07,0.88
7.169721,0.0210,-0.9224,-0.0972,-10.50,-0.55,-20.08,-94.60,3.69,0.91
7.169721,0.1094,-0.9048,-0.1675,-5.13,-4.21,-12.88,-94.76,3.36,0.97
7.199003,0.0581,-0.9053,-0.1255,3.66,-3.85,-3.23,-94.76,3.21,1.07
7.199003,-0.0698,-0.8730,-0.0293,2.38,-3.91,-0.79,-94.67,3.20,1.14
7.229035,-0.0361,-0.9404,-0.0698,-1.16,-4.09,-5.74,-94.67,3.14,1.23
7.229035,-0.0010,-0.9434,-0.2832,7.14,-10.86,-3.97,-94.63,3.04,1.37
7.289358,-0.0908,-0.9033,-0.2500,21.06,-22.03,-1.77,-94.31,3.02,1.72
7.289358,-0.0889,-0.9746,0.0044,26.67,-20.45,-10.80,-93.80,2.92,2.18
7.320337,0.0967,-1.0283,-0.0112,27.10,-13.00,-10.07,-93.24,2.70,2.51
7.320337,0.1191,-0.9995,-0.0103,23.07,-11.54,4.76,-92.72,2.66,2.75
7.349341,-0.1348,-0.8687,0.1191,9.52,-12.57,8.06,-92.38,2.83,2.98
7.349341,-0.3071,-0.8999,0.0811,-6.53,-16.85,-11.47,-92.36,2.82,3.27
7.408989,-0.1367,-1.0732,-0.0933,-6.16,-22.71,-33.02,-92.50,2.35,3.69
7.408989,0.1162,-1.1201,-0.0332,2.44,-21.73,-29.05,-92.52,1.70,4.16
7.438951,0.1021,-1.1460,-0.0156,5.80,-12.45,-16.85,-92.42,1.27,4.50
7.438951,0.0645,-1.1602,-0.1011,16.36,-8.79,-8.97,-92.21,1.03,4.72
7.498996,0.1367,-1.1240,-0.0840,30.40,-6.41,-0.12,-91.73,0.94,4.86
7.498996,0.0659,-1.0654,0.1035,35.95,-2.93,8.97,-91.04,1.04,4.97
7.529007,-0.1372,-1.0098,0.2217,29.72,-1.71,8.67,-90.37,1.25,5.00
7.529007,-0.2007,-1.0444,0.2280,18.55,-1.34,-3.05,-89.90,1.31,5.04
7.559022,-0.0522,-1.1157,0.1177,16.91,1.10,-11.17,-89.56,1.14,5.03
7.559022,0.0020,-1.1206,0.1221,15.20,-0.92,-8.73,-89.23,0.94,5.02
7.619750,-0.0664,-1.1704,0.1279,11.05,-1.22,-9.46,-88.97,0.77,5.04
7.619750,0.0010,-1.2427,0.0312,12.45,1.40,-11.11,-88.74,0.56,5.03
7.649011,0.0981,-1.2456,0.0591,14.77,1.71,-5.80,-88.45,0.39,4.98
7.649011,0.0557,-1.1938,0.0439,12.57,-0.85,0.49,-88.18,0.35,4.97
7.679030,-0.0400,-1.1421,0.0571,10.25,-6.90,-2.01,-87.95,0.35,5.05
7.679030,0.0366,-1.1602,0.0933,7.69,-9.89,-5.31,-87.76,0.25,5.22
7.738925,0.1094,-1.1587,0.1304,4.27,-5.25,0.24,-87.65,0.19,5.37
7.738925,0.0483,-1.1055,0.0483,4.52,-0.43,6.65,-87.57,0.27,5.43
7.769863,-0.1172,-1.0493,0.0571,6.71,-1.16,3.05,-87.45,0.39,5.44
7.769863,-0.1016,-1.0635,0.0771,4.27,-1.34,-8.18,-87.33,0.32,5.47
7.798991,0.1104,-1.1650,-0.0205,7.81,-0.79,-5.74,-87.23,0.15,5.48
7.798991,0.1196,-1.1514,-0.0107,15.93,1.89,6.90,-86.98,0.18,5.47
7.859021,-0.1025,-1.0503,0.0972,17.52,1.95,8.42,-86.62,0.37,5.44
7.859021,-0.1694,-1.0542,0.1807,9.70,0.98,-3.42,-86.35,0.43,5.42
7.889284,0.0249,-1.1265,0.1714,1.04,-1.04,-7.81,-86.24,0.29,5.41
7.889284,0.1104,-1.1597,0.1167,-2.93,0.00,0.00,-86.28,0.21,5.42
7.920052,-0.0171,-1.1221,0.0791,-2.08,0.85,2.62,-86.33,0.26,5.41
7.920052,0.0396,-1.1245,0.0518,0.24,0.00,1.28,-86.34,0.29,5.40
7.978937,0.1167,-1.1592,-0.0039,5.74,0.00,7.26,-86.29,0.38,5.41
7.978937,0.0679,-1.1016,-0.0068,13.06,-0.49,14.83,-86.09,0.61,5.43
8.008980,-0.0547,-1.0381,0.0889,15.44,-1.83,13.55,-85.79,0.91,5.49
8.008980,-0.0659,-0.9990,0.1494,10.44,-2.26,7.32,-85.52,1.11,5.55
8.038996,-0.0430,-1.0181,0.1255,6.23,-3.85,2.93,-85.36,1.20,5.62
8.038996,-0.0156,-1.0249,0.1328,3.54,-3.11,1.22,-85.26,1.24,5.70
8.098972,0.0132,-1.0449,0.1104,2.99,-2.56,2.26,-85.20,1.26,5.76
8.098972,0.0420,-1.0703,0.0967,4.15,-2.81,5.43,-85.13,1.33,5.82
8.128998,0.0049,-1.0415,0.1245,4.21,-3.05,9.83,-85.03,1.49,5.90
8.128998,-0.1094,-1.0293,0.1494,3.78,-2.99,6.04,-84.95,1.66,5.98
8.158857,-0.0923,-1.0537,0.1934,-0.73,-3.97,-2.01,-84.92,1.69,6.05
8.158857,0.0215,-1.1226,0.1450,-4.70,-5.31,-2.32,-84.98,1.62,6.14
8.220142,0.0415,-1.1855,0.1123,-1.46,-3.36,0.61,-85.05,1.59,6.22
8.220142,0.0435,-1.1958,0.1602,1.16,-0.73,4.33,-85.03,1.64,6.27
8.250054,-0.0044,-1.1836,0.1616,-0.43,1.28,5.86,-85.03,1.76,6.27
8.250054,-0.0479,-1.1699,0.1577,-3.97,1.10,3.91,-85.07,1.86,6.26
8.278979,-0.0752,-1.1641,0.1338,-8.97,-0.73,1.71,-85.20,1.92,6.26
8.278979,-0.0962,-1.2188,0.0947,-10.62,0.85,-3.30,-85.41,1.91,6.27
8.339050,-0.0107,-1.2866,0.0601,-6.35,3.85,-5.74,-85.58,1.81,6.20
8.339050,0.1084,-1.3169,0.0962,-3.17,5.19,0.61,-85.67,1.76,6.10
8.370300,0.0815,-1.2793,0.1060,-4.09,5.68,12.33,-85.74,1.92,6.00
8.370300,-0.0991,-1.2148,0.1030,-4.33,6.04,13.92,-85.83,2.22,5.92
8.398959,-0.1929,-1.1714,0.1899,-7.81,5.49,3.23,-85.93,2.42,5.82
8.398959,-0.1113,-1.1685,0.2334,-17.76,6.77,-3.54,-86.19,2.41,5.70
8.459030,-0.0786,-1.1895,0.0903,-24.66,11.23,-4.09,-86.65,2.35,5.51
8.459030,-0.1694,-1.2051,-0.0244,-18.55,13.85,-10.07,-87.09,2.25,5.24
8.489277,-0.0376,-1.2788,-0.0449,-9.16,15.14,-17.88,-87.37,1.97,4.93
8.489277,0.1455,-1.2905,-0.0566,-0.49,15.75,-10.19,-87.46,1.69,4.59
8.520376,0.1465,-1.2759,-0.0342,7.45,14.89,2.99,-87.39,1.66,4.28
8.520376,0.0840,-1.2212,0.0527,10.38,14.34,12.51,-87.20,1.85,4.00
8.579020,-0.0190,-1.1465,0.1519,6.96,11.96,15.93,-87.03,2.17,3.76
8.579020,-0.1152,-1.1260,0.0981,4.33,14.40,11.29,-86.93,2.48,3.53
8.609382,-0.1357,-1.1196,0.0547,8.06,12.70,3.11,-86.81,2.64,3.26
8.609382,-0.0483,-1.1045,0.1104,9.28,10.31,-1.65,-86.64,2.66,3.03
8.638990,-0.0420,-1.0688,0.1509,7.93,11.84,-0.98,-86.48,2.66,2.82
8.638990,-0.0786,-1.0151,0.0898,9.09,14.10,-3.17,-86.31,2.64,2.54
8.699005,-0.1499,-1.0000,0.0898,10.74,13.43,-10.31,-86.13,2.55,2.26
8.699005,0.0000,-0.9600,0.2466,4.33,7.87,-13.85,-85.95,2.30,2.01
8.729042,0.0874,-0.9829,0.2339,-8.91,3.85,-5.68,-86.03,2.11,1.89
8.729042,0.0303,-0.9775,0.1396,-12.33,2.32,2.20,-86.26,2.10,1.83
8.758925,-0.0918,-0.9336,0.1069,-8.06,2.32,0.92,-86.46,2.16,1.79
8.758925,-0.0835,-0.8711,0.1235,-7.69,-0.73,-4.52,-86.61,2.12,1.76
8.820396,0.0176,-0.9043,0.0981,-9.22,-5.49,-5.43,-86.78,2.01,1.82
8.820396,0.0703,-0.8887,0.1431,-8.61,-9.95,-0.12,-86.95,1.94,1.98
8.848991,0.0483,-0.8906,0.2705,-10.44,-11.23,3.23,-87.13,1.97,2.19
8.848991,0.0674,-0.8271,0.3872,-23.86,-10.80,8.36,-87.45,2.07,2.43
8.908946,-0.0112,-0.8281,0.1934,-31.92,-9.83,11.17,-88.04,2.26,2.64
8.908946,-0.0400,-0.8057,0.0679,-27.89,-11.41,9.52,-88.64,2.46,2.87
8.938970,-0.0059,-0.8306,0.0376,-18.01,-6.65,9.46,-89.09,2.64,3.07
8.938970,0.0264,-0.8223,0.0840,-10.93,-1.71,13.79,-89.35,2.87,3.15
8.971617,0.0171,-0.7915,0.1011,-10.86,-0.73,20.32,-89.56,3.22,3.18
8.971617,-0.1221,-0.7319,0.1030,-13.55,-0.06,20.51,-89.80,3.65,3.21
9.028998,-0.1914,-0.7251,0.0474,-14.59,-0.49,10.62,-90.09,3.96,3.22
9.028998,-0.0674,-0.7710,0.0415,-14.04,-0.92,5.19,-90.37,4.10,3.24
9.058960,0.0176,-0.7993,0.0234,-12.63,0.61,8.97,-90.63,4.24,3.25
9.058960,-0.0083,-0.7539,0.0625,-13.37,2.01,12.63,-90.88,4.47,3.22
9.089419,-0.0942,-0.6777,0.0630,-19.35,-0.73,11.23,-91.21,4.72,3.20
9.089419,-0.0708,-0.6357,0.0352,-26.98,-1.59,7.93,-91.68,4.91,3.24
9.149026,-0.1250,-0.6138,-0.1074,-28.50,-1.77,7.26,-92.24,5.07,3.26
9.149026,-0.1172,-0.6162,-0.1729,-23.68,-0.79,4.52,-92.76,5.19,3.30
9.179017,-0.1021,-0.6499,-0.2393,-13.00,2.26,6.10,-93.13,5.29,3.27
9.179017,-0.1484,-0.6245,-0.1377,-7.32,5.43,5.68,-93.31,5.42,3.19
9.209023,-0.1733,-0.6304,-0.1523,-6.10,7.26,0.98,-93.46,5.48,3.05
9.209023,-0.1494,-0.6494,-0.1675,-2.75,6.71,-3.60,-93.56,5.45,2.91
9.270750,-0.1196,-0.6934,-0.1938,1.04,6.59,-8.12,-93.58,5.33,2.79
9.270750,-0.0312,-0.7207,-0.2344,5.62,6.23,-8.61,-93.52,5.15,2.66
9.299019,-0.0264,-0.7070,-0.2305,11.05,4.21,-6.23,-93.36,5.00,2.57
9.299019,-0.0601,-0.7021,-0.2197,17.03,3.97,-8.24,-93.08,4.87,2.49
9.329037,0.1006,-0.7710,-0.1895,25.21,5.62,-9.16,-92.66,4.67,2.40
9.329037,0.2183,-0.7891,-0.1079,27.59,5.98,5.43,-92.12,4.63,2.28
9.389360,0.0708,-0.7402,-0.0557,24.96,4.21,20.45,-91.60,4.91,2.18
9.389360,-0.1836,-0.6577,0.0249,22.28,1.59,20.51,-91.13,5.36,2.12
9.418939,-0.3511,-0.6528,0.1001,18.25,1.46,3.23,-90.74,5.61,2.09
9.418939,-0.2676,-0.7300,0.0918,13.12,0.31,-16.24,-90.42,5.45,2.07
9.448996,-0.0488,-0.8345,0.0762,6.53,-7.69,-20.69,-90.23,5.05,2.12
9.448996,-0.0405,-0.8540,0.1035,1.40,-12.76,-12.63,-90.14,4.72,2.34
9.508972,-0.1299,-0.9077,0.1650,1.89,-6.16,-15.56,-90.10,4.46,2.55
9.508972,0.0674,-0.9956,0.1333,11.05,7.20,-14.89,-89.98,4.13,2.51
9.539057,0.1050,-0.9717,0.2007,16.30,13.55,-0.37,-89.69,3.98,2.27
9.539057,-0.1895,-0.8228,0.2744,3.60,4.52,7.51,-89.48,4.10,2.08
9.569010,-0.5381,-0.6978,0.4604,-30.03,-15.01,-11.78,-89.72,4.10,2.21
9.569010,-0.1465,-0.9380,0.1929,-52.31,-12.63,-39.61,-90.61,3.52,2.50
9.629009,0.4302,-1.2676,-0.1787,-30.82,-6.04,-21.42,-91.47,2.85,2.68
9.629009,0.3804,-1.1978,-0.0552,-7.51,2.14,20.63,-91.80,2.87,2.71
9.658979,-0.0859,-0.9941,0.1016,-2.69,6.65,32.04,-91.88,3.49,2.63
9.658979,-0.0386,-0.9868,-0.1060,2.87,8.42,22.64,-91.91,4.02,2.43
9.689332,0.0386,-1.0156,-0.1050,12.33,3.30,28.87,-91.74,4.52,2.33
9.689332,-0.2295,-0.8701,-0.0044,14.16,-1.71,33.39,-91.46,5.17,2.30
9.748971,-0.5566,-0.8398,0.2002,-1.71,-5.68,5.00,-91.31,5.61,2.41
9.748971,-0.0728,-1.0229,-0.1172,0.49,-1.65,-12.39,-91.37,5.45,2.47
9.778945,0.1343,-1.1304,-0.1479,19.47,3.30,1.10,-91.15,5.33,2.46
9.778945,-0.1123,-1.0366,0.0000,29.97,7.63,14.16,-90.64,5.52,2.34
9.808995,-0.3735,-0.9443,0.1182,22.95,10.44,3.78,-90.10,5.73,2.16
9.808995,-0.2798,-0.9829,0.0562,15.44,6.59,-10.25,-89.75,5.66,1.98
9.869337,-0.1382,-1.0605,0.0854,8.36,-2.32,-17.52,-89.51,5.37,1.92
9.869337,-0.1460,-1.0527,0.2539,-9.64,-14.40,-19.41,-89.49,5.00,2.10
9.899006,-0.1543,-1.1328,0.1318,-28.69,-9.89,-25.15,-89.90,4.54,2.36
9.899006,0.0723,-1.2969,-0.2778,-10.01,-1.40,-20.20,-90.32,4.07,2.45
9.929007,0.0752,-1.2290,-0.2271,10.50,2.56,-6.77,-90.28,3.82,2.42
9.929007,-0.0972,-1.1436,-0.1748,20.20,1.04,-3.72,-89.96,3.74,2.38
9.989006,-0.1489,-1.0991,-0.0186,23.13,-2.87,-9.46,-89.50,3.61,2.40
9.989006,-0.0791,-1.1265,0.0742,16.85,-4.33,-13.92,-89.10,3.37,2.46
10.018740,-0.0547,-1.1328,0.1191,9.89,-4.52,-14.10,-88.82,3.09,2.54
10.018740,-0.0371,-1.1777,-0.0522,10.50,-0.12,-13.24,-88.65,2.81,2.57
10.048684,-0.0322,-1.1978,-0.1191,22.46,0.79,-12.51,-88.32,2.56,2.55
10.048684,-0.0532,-1.1870,-0.1025,33.69,-0.49,-12.76,-87.75,2.32,2.53
10.109025,0.0010,-1.1768,0.1528,36.44,-2.26,-15.62,-87.02,2.03,2.54
10.109025,-0.0264,-1.1309,0.3701,18.68,-2.50,-14.10,-86.45,1.74,2.57
10.139695,0.0420,-1.1621,0.3086,2.08,-4.76,-14.77,-86.26,1.43,2.61
10.139695,0.0254,-1.1431,0.1812,-8.30,-5.62,-11.96,-86.34,1.17,2.69
10.169009,-0.0146,-1.1055,0.0596,-8.73,-6.84,-14.34,-86.52,0.90,2.79
10.169009,0.0649,-1.1152,0.0142,-3.66,-4.76,-14.10,-86.65,0.60,2.89
10.229107,0.1353,-1.1670,-0.0361,9.46,0.31,-7.81,-86.59,0.38,2.92
10.229107,0.1392,-1.1138,0.0332,20.69,3.36,2.01,-86.27,0.34,2.87
10.259009,-0.0376,-1.0103,0.1128,21.85,3.23,2.56,-85.83,0.42,2.81
10.259009,-0.0981,-0.9517,0.1968,17.27,1.89,-5.62,-85.42,0.40,2.75
10.319015,-0.0815,-0.9663,0.1733,9.40,0.67,-14.22,-85.17,0.20,2.70
10.319015,0.0854,-1.0342,0.1567,5.62,-2.69,-15.81,-85.02,-0.13,2.68
10.349010,0.1357,-1.0811,0.1440,2.50,-1.34,-6.53,-84.95,-0.35,2.71
10.349010,0.0181,-1.0825,0.0903,5.13,-0.67,-3.42,-84.87,-0.43,2.71
10.380039,0.0605,-1.1152,0.0698,8.73,-0.55,-3.17,-84.73,-0.50,2.72
10.380039,0.0664,-1.1299,0.0981,13.49,0.79,-0.24,-84.50,-0.53,2.71
10.438926,-0.0024,-1.0967,0.1748,10.86,-1.95,0.61,-84.25,-0.51,2.72
10.438926,-0.0044,-1.1040,0.2354,2.08,-4.82,-1.77,-84.12,-0.53,2.80
10.468920,0.0820,-1.1680,0.1455,-1.16,-4.09,0.73,-84.13,-0.56,2.88
10.468920,0.1001,-1.1865,0.1323,3.72,-0.31,6.53,-84.11,-0.49,2.93
10.498989,0.0049,-1.1411,0.2061,2.81,2.14,10.44,-84.02,-0.30,2.94
10.498989,-0.0327,-1.1445,0.1870,-1.53,3.60,7.75,-84.01,-0.11,2.90
10.558990,-0.0303,-1.1685,0.1606,-5.00,2.20,5.98,-84.08,0.04,2.86
10.558990,-0.0532,-1.1753,0.1553,-7.14,1.28,3.48,-84.20,0.14,2.84
10.589236,-0.0449,-1.1963,0.1450,-8.54,1.40,-0.49,-84.36,0.18,2.82
10.589236,0.0327,-1.2144,0.1709,-10.50,2.50,0.12,-84.55,0.16,2.78
10.618886,0.0322,-1.2358,0.0986,-9.83,5.80,3.42,-84.77,0.22,2.70
10.618886,0.0171,-1.2197,0.1206,-7.20,6.53,4.70,-84.92,0.32,2.58
10.678955,-0.0088,-1.1855,0.1621,-10.13,8.85,6.29,-85.09,0.46,2.44
10.678955,-0.0498,-1.2061,0.0898,-12.21,9.64,4.76,-85.31,0.59,2.26
10.709081,-0.0620,-1.2236,0.0269,-10.31,8.12,3.11,-85.55,0.69,2.10
10.709081,-0.0151,-1.2808,0.1030,-6.59,8.97,-1.04,-85.70,0.73,1.92
10.738898,0.0723,-1.2598,0.1753,-13.24,2.44,3.66,-85.89,0.75,1.80
10.738898,0.1201,-1.2954,0.0854,-18.13,-6.71,15.14,-86.23,0.95,1.90
10.799013,0.0249,-1.2393,-0.0371,-9.83,0.12,18.68,-86.51,1.29,1.99
10.799013,-0.1147,-1.1987,-0.0986,2.75,4.27,15.50,-86.58,1.65,1.97
10.828957,-0.1265,-1.1831,-0.0464,14.47,7.32,5.55,-86.40,1.88,1.87
10.828957,-0.0332,-1.1265,0.1411,16.66,9.34,-1.04,-86.05,1.92,1.70
10.859073,-0.0210,-1.0459,0.2715,1.95,10.56,-0.18,-85.86,1.93,1.51
10.859073,-0.0210,-1.1172,0.2412,-10.62,14.53,-3.23,-85.98,1.93,1.24
10.919012,0.0332,-1.0898,0.2280,-21.18,13.85,-3.78,-86.30,1.87,0.96
10.919012,0.0327,-1.1260,0.0371,-23.74,14.71,0.43,-86.79,1.87,0.66
10.948976,0.0161,-1.1440,0.0591,-13.92,12.02,2.20,-87.17,1.93,0.41
10.948976,0.0581,-1.1133,0.1509,-9.16,15.75,3.60,-87.39,2.00,0.13
10.979199,0.1294,-1.0693,0.1582,-11.54,22.34,12.08,-87.60,2.18,-0.23
10.979199,0.0903,-1.0176,0.0103,-8.73,30.58,23.86,-87.83,2.59,-0.75
11.039042,-0.2051,-0.9614,-0.0859,3.11,38.15,22.52,-87.91,3.14,-1.40
11.039042,-0.3628,-1.0010,-0.0708,26.25,42.30,0.00,-87.64,3.42,-2.22
11.068981,-0.1704,-0.9517,0.1504,37.72,32.04,-18.19,-86.98,3.26,-2.99
11.068981,-0.0093,-0.7373,0.4526,6.90,10.01,-11.29,-86.50,2.95,-3.43
11.098964,0.0352,-0.8003,0.4233,-31.98,8.36,5.25,-86.81,2.93,-3.58
11.098964,-0.1763,-0.8784,0.0513,-38.82,13.12,2.87,-87.59,3.07,-3.80
11.159360,-0.1982,-0.9292,-0.1318,-17.76,15.75,-7.26,-88.18,3.04,-4.10
11.159360,0.0361,-0.9404,0.0186,-0.24,15.20,-6.84,-88.32,2.88,-4.42
11.189350,0.1621,-0.9360,0.1875,-2.93,12.45,9.40,-88.34,2.93,-4.69
11.189350,0.0620,-0.8921,0.2139,-14.89,7.14,22.09,-88.52,3.28,-4.87
11.219267,-0.0762,-0.8169,0.1733,-27.40,-0.67,23.44,-88.96,3.76,-4.91
11.219267,-0.1641,-0.7510,0.0830,-36.32,-6.65,15.50,-89.60,4.16,-4.81
11.279002,-0.2144,-0.7148,-0.0791,-37.66,-11.47,3.54,-90.35,4.35,-4.63
11.279002,-0.1289,-0.7319,-0.1436,-30.03,-19.04,-7.14,-91.01,4.29,-4.31
11.309047,0.0654,-0.7354,-0.0352,-26.12,-25.33,-4.33,-91.52,4.15,-3.86
11.309047,0.0625,-0.6982,0.0142,-32.17,-25.63,6.53,-92.07,4.19,-3.34
11.339001,-0.0830,-0.7119,-0.1753,-28.63,-25.63,6.71,-92.68,4.36,-2.83
11.339001,-0.0679,-0.7393,-0.1768,-10.38,-22.52,1.10,-93.03,4.44,-2.34
11.398989,0.0415,-0.7505,-0.0342,0.61,-16.11,2.38,-93.07,4.47,-1.96
11.398989,0.0552,-0.7568,0.0503,1.22,-10.44,10.50,-93.02,4.62,-1.70
11.429003,-0.0220,-0.7490,0.0317,2.87,-8.18,15.14,-92.97,4.89,-1.53
11.429003,-0.0825,-0.6953,0.1172,1.71,-4.70,14.16,-92.90,5.20,-1.41
11.458986,-0.1284,-0.6973,0.0879,-4.03,-2.01,9.95,-92.92,5.45,-1.35
11.458986,-0.1733,-0.7139,0.0425,-6.10,-2.93,3.60,-93.03,5.59,-1.31
11.518961,-0.1196,-0.7183,0.0718,-10.13,-4.21,-1.40,-93.18,5.60,-1.24
11.518961,-0.0957,-0.7524,0.0312,-15.32,-2.87,-2.69,-93.43,5.57,-1.15
11.548989,-0.0483,-0.7891,-0.0854,-10.93,1.28,-0.92,-93.71,5.53,-1.14
11.548989,-0.0776,-0.7695,-0.0801,-2.08,5.80,1.53,-93.83,5.54,-1.21
11.579433,-0.1411,-0.7017,0.0107,-0.79,4.27,0.73,-93.86,5.57,-1.33
11.579433,-0.1260,-0.7065,0.0996,-5.37,6.90,-2.62,-93.93,5.55,-1.42
11.638977,-0.0674,-0.7314,-0.0044,-2.99,14.04,-1.83,-94.04,5.49,-1.64
11.638977,-0.0825,-0.7329,-0.0337,1.16,15.56,0.31,-94.06,5.47,-1.94
11.668969,-0.1558,-0.7104,-0.0347,-2.32,13.00,-1.83,-94.09,5.45,-2.24
11.668969,-0.1289,-0.7266,-0.0493,-7.69,4.76,-9.64,-94.21,5.33,-2.40
11.728977,0.0190,-0.7798,-0.0762,-8.73,1.53,-9.64,-94.39,5.12,-2.44
11.728977,0.0020,-0.8154,-0.0889,-6.04,1.89,-4.39,-94.54,4.99,-2.47
11.758983,-0.1250,-0.8047,-0.1138,-0.43,2.81,-6.23,-94.61,4.90,-2.52
11.758983,-0.1519,-0.8120,0.0098,3.05,4.46,-17.03,-94.57,4.67,-2.57
11.789252,0.0396,-0.8628,0.0181,2.08,9.58,-20.26,-94.53,4.26,-2.70
11.789252,0.0981,-0.9009,0.0234,1.77,8.91,-11.05,-94.49,3.94,-2.87
11.848939,-0.0283,-0.8657,0.0635,-3.30,8.18,-6.96,-94.51,3.77,-3.03
11.848939,-0.1401,-0.8286,0.0312,-10.25,2.87,-12.02,-94.66,3.59,-3.14
11.878987,-0.0386,-0.9165,-0.0337,-12.08,1.71,-19.35,-94.89,3.26,-3.15
11.878987,0.0967,-1.0171,-0.1089,-7.51,2.99,-13.49,-95.09,2.92,-3.17
11.908990,0.0444,-1.0254,-0.1914,2.20,9.16,-4.39,-95.15,2.75,-3.28
11.908990,-0.0576,-0.9746,-0.1084,14.59,14.40,-4.58,-94.97,2.66,-3.52
11.969705,-0.0640,-0.9468,-0.0029,16.78,17.03,-9.95,-94.64,2.50,-3.85
11.969705,-0.0654,-0.9722,0.0347,6.41,5.92,-12.88,-94.41,2.25,-4.07
11.998934,-0.0938,-1.0068,0.0464,-8.12,-1.53,-14.95,-94.43,1.98,-4.07
11.998934,0.0918,-1.1079,-0.2031,-6.35,3.17,-13.79,-94.62,1.67,-4.07
12.028899,0.2563,-1.1641,-0.2983,13.98,8.73,-1.04,-94.55,1.52,-4.17
12.028899,0.2920,-1.1489,-0.2383,34.24,11.78,19.53,-94.04,1.70,-4.41
12.089266,0.0977,-1.0649,-0.0762,40.71,12.76,36.32,-93.26,2.28,-4.67
12.089266,-0.1455,-0.9844,-0.0391,38.64,14.16,39.67,-92.48,3.07,-4.96
12.119004,-0.3359,-0.9570,0.0146,38.57,16.11,25.63,-91.71,3.73,-5.28
12.119004,-0.2690,-0.9751,0.1123,30.15,10.44,6.53,-91.03,4.03,-5.56
12.149028,-0.0845,-1.0342,0.1860,11.11,0.98,1.28,-90.62,4.09,-5.66
12.149028,-0.0747,-1.0898,0.0054,-0.92,-1.28,4.27,-90.55,4.15,-5.65
12.209925,-0.1265,-1.1230,-0.1685,4.46,-3.23,2.93,-90.54,4.23,-5.60
12.209925,-0.0645,-1.1230,-0.1152,15.99,-3.30,0.79,-90.31,4.26,-5.52
12.239078,-0.0142,-1.0850,-0.0396,23.32,1.46,3.66,-89.91,4.31,-5.50
12.239078,-0.0703,-1.0625,-0.0142,28.14,5.62,4.58,-89.39,4.40,-5.58
12.269746,-0.1060,-1.0415,0.0405,30.09,5.68,3.48,-88.80,4.49,-5.70
12.269746,-0.1914,-0.9487,0.1841,17.46,-1.53,0.85,-88.30,4.55,-5.75
12.329783,-0.2876,-0.9419,0.2563,-7.08,-10.80,-11.11,-88.20,4.45,-5.61
12.329783,-0.0811,-1.0977,0.0864,-21.42,-14.22,-21.79,-88.52,4.08,-5.37
12.358814,0.1230,-1.2041,-0.0366,-18.31,-12.82,-13.79,-88.91,3.69,-5.11
12.358814,0.1353,-1.2134,-0.1201,-8.06,-7.93,2.75,-89.17,3.59,-4.90
12.392124,-0.0283,-1.1646,-0.1196,8.06,-1.34,10.74,-89.15,3.75,-4.80
12.392124,-0.1470,-1.1230,-0.0317,18.25,2.56,7.75,-88.87,3.95,-4.83
12.450162,-0.1128,-1.1299,0.1709,15.38,-0.24,0.79,-88.51,4.03,-4.84
12.450162,-0.0146,-1.1348,0.2339,0.85,-1.71,2.32,-88.35,4.05,-4.82
12.478994,-0.0811,-1.1562,0.1494,-9.89,-3.85,2.01,-88.45,4.11,-4.76
12.478994,-0.0654,-1.1636,-0.0259,-9.46,-7.32,1.28,-88.66,4.14,-4.65
12.508928,-0.0845,-1.1479,-0.0776,-1.59,-10.68,1.46,-88.76,4.16,-4.46
12.508928,-0.1030,-1.0825,-0.0146,5.80,-9.95,2.08,-88.69,4.19,-4.24
12.569684,-0.1982,-1.0220,0.0181,10.44,-3.11,-3.54,-88.51,4.18,-4.12
12.569684,-0.1577,-1.0210,-0.0381,15.38,-0.61,-11.72,-88.25,4.02,-4.10
12.599001,-0.0454,-1.0459,0.0049,22.22,-1.10,-12.63,-87.87,3.76,-4.10
12.599001,-0.0073,-1.0498,0.0938,23.19,-0.92,-7.20,-87.40,3.57,-4.09
12.629771,-0.0605,-1.0610,0.1602,19.53,-2.26,-4.94,-86.97,3.46,-4.06
12.629771,-0.0542,-1.0825,0.1841,15.38,-1.28,-5.62,-86.62,3.35,-4.03
12.690053,-0.0840,-1.0767,0.1978,10.13,0.61,-6.35,-86.36,3.24,-4.04
12.690053,-0.0972,-1.0801,0.1738,3.30,-1.40,-9.34,-86.23,3.08,-4.05
12.718991,-0.0303,-1.1323,0.1162,0.18,-3.66,-10.50,-86.20,2.87,-4.02
12.718991,0.0630,-1.1606,0.0771,0.06,-4.58,-3.72,-86.20,2.72,-3.94
12.749753,0.0298,-1.1562,0.0405,4.82,-2.93,4.64,-86.15,2.74,-3.86
12.749753,-0.0557,-1.1118,0.0874,9.77,-1.04,7.14,-86.00,2.86,-3.81
12.809971,-0.0928,-1.0845,0.1646,6.96,-0.31,4.94,-85.81,2.99,-3.79
12.809971,-0.0693,-1.0996,0.1768,0.92,-2.50,3.17,-85.73,3.07,-3.75
12.839386,-0.0513,-1.1211,0.1631,-4.09,-2.56,3.48,-85.77,3.13,-3.69
12.839386,-0.0747,-1.1372,0.1196,-6.84,-1.65,2.44,-85.88,3.19,-3.64
12.870625,-0.0508,-1.1792,0.0483,-4.39,-0.55,1.04,-86.00,3.23,-3.61
12.870625,-0.0415,-1.1787,0.0864,0.06,3.23,0.37,-86.03,3.25,-3.64
12.929814,-0.0781,-1.1704,0.0938,-0.92,6.71,-0.06,-86.04,3.27,-3.74
12.929814,-0.0947,-1.1885,0.0215,-2.69,7.87,-4.33,-86.09,3.24,-3.89
12.959025,-0.0259,-1.2798,-0.0127,2.69,9.09,-6.53,-86.11,3.14,-4.06
12.959025,0.0249,-1.3379,0.0508,8.67,14.04,-2.56,-86.00,3.07,-4.31
12.989851,0.0454,-1.3921,0.1196,11.90,15.32,2.87,-85.79,3.10,-4.61
12.989851,0.0215,-1.3774,0.2368,8.54,16.11,10.31,-85.59,3.27,-4.91
13.049802,-0.1001,-1.3096,0.2944,-1.95,16.17,12.76,-85.53,3.55,-5.21
13.049802,-0.1924,-1.2778,0.2646,-12.39,18.62,5.98,-85.70,3.79,-5.53
13.079010,-0.1870,-1.2695,0.1455,-18.49,20.69,-1.83,-86.04,3.87,-5.93
13.079010,-0.1260,-1.2783,0.0571,-17.70,21.67,-7.57,-86.44,3.81,-6.36
13.139527,-0.0913,-1.2275,0.0283,-15.08,21.79,-8.00,-86.79,3.69,-6.81
13.139527,-0.1045,-1.2310,-0.0161,-11.66,20.39,-11.29,-87.08,3.53,-7.25
13.168644,-0.0503,-1.1914,-0.0010,-6.96,16.36,-12.27,-87.28,3.32,-7.63
13.168644,-0.0625,-1.1387,-0.0332,-0.55,18.62,-12.27,-87.37,3.10,-7.99
13.199759,-0.1323,-1.0703,-0.0029,8.48,19.04,-14.47,-87.30,2.87,-8.39
13.199759,-0.0669,-0.9912,0.1885,7.39,18.43,-15.56,-87.12,2.59,-8.78
13.259818,-0.0762,-0.9258,0.2026,-7.69,21.24,-10.93,-87.13,2.37,-9.21
13.259818,-0.1729,-0.9360,-0.0054,-20.02,13.00,-16.05,-87.45,2.14,-9.59
13.289568,-0.1045,-0.9883,-0.1519,-22.28,1.89,-25.51,-87.89,1.73,-9.75
13.289568,0.0010,-1.0703,-0.1948,-13.92,-7.93,-30.82,-88.27,1.16,-9.72
13.319827,0.2017,-1.1309,-0.0620,-2.93,-11.41,-25.02,-88.42,0.58,-9.54
13.319827,0.2949,-1.1201,0.0972,2.69,-8.73,-5.25,-88.41,0.26,-9.35
13.379774,0.1670,-1.0596,0.1938,1.46,-5.37,11.47,-88.36,0.35,-9.21
13.379774,-0.0171,-0.9912,0.2090,-1.34,-5.80,16.97,-88.37,0.66,-9.09
13.408991,-0.1450,-0.9121,0.2612,-7.26,-9.64,12.45,-88.45,0.96,-8.91
13.408991,-0.1479,-0.8813,0.2446,-11.72,-12.27,3.05,-88.64,1.09,-8.68
13.439749,-0.0317,-0.8843,0.3252,-21.85,-19.59,-1.28,-88.97,1.08,-8.37
13.439749,0.1401,-0.9131,0.3301,-37.23,-18.13,8.79,-89.58,1.13,-7.95
13.499662,0.0430,-0.9541,0.0327,-31.43,-7.39,19.17,-90.30,1.43,-7.71
13.499662,-0.1577,-0.8623,-0.0312,-16.66,-2.26,17.21,-90.76,1.82,-7.61
13.528885,-0.2700,-0.7900,-0.0435,-7.26,-0.49,3.17,-90.99,2.03,-7.59
13.528885,-0.1328,-0.7930,0.0454,-1.77,-5.13,-9.03,-91.05,1.94,-7.54
13.559883,0.0459,-0.7798,0.2173,-11.90,-10.62,-5.74,-91.17,1.78,-7.38
13.559883,0.0396,-0.7739,0.1885,-27.53,-15.14,0.12,-91.57,1.74,-7.11
13.619772,0.0220,-0.8149,-0.0381,-33.20,-17.46,-0.55,-92.20,1.75,-6.78
13.619772,0.0688,-0.8643,-0.1450,-23.07,-21.73,-0.49,-92.77,1.74,-6.39
13.649018,0.1860,-0.8813,0.0391,-12.57,-19.23,7.39,-93.09,1.81,-5.97
13.649018,0.2129,-0.8535,0.2314,-14.77,-12.45,22.58,-93.33,2.13,-5.65
13.679774,0.1011,-0.8057,0.2021,-18.43,0.37,35.03,-93.67,2.74,-5.56
13.679774,-0.1050,-0.7227,0.0986,-15.81,8.67,35.22,-94.02,3.46,-5.70
13.739857,-0.1841,-0.6353,0.0415,-14.95,15.01,26.49,-94.33,4.06,-5.98
13.739857,-0.2275,-0.5596,-0.0874,-20.87,9.58,18.86,-94.70,4.50,-6.26
13.768939,-0.2812,-0.5396,-0.2041,-24.66,-0.61,7.57,-95.17,4.77,-6.36
13.768939,-0.2231,-0.5649,-0.2168,-22.16,-5.43,-2.93,-95.64,4.81,-6.28
13.799777,-0.1514,-0.6172,-0.2056,-15.75,-2.93,-8.30,-96.02,4.70,-6.18
13.799777,-0.1494,-0.6548,-0.2065,-8.18,1.16,-12.02,-96.24,4.50,-6.15
13.859698,-0.1035,-0.6899,-0.1729,-3.48,1.65,-16.42,-96.34,4.21,-6.16
13.859698,-0.0649,-0.6958,-0.0962,-6.41,-0.31,-17.09,-96.43,3.87,-6.15
13.889830,-0.0312,-0.7178,-0.1040,-10.44,-2.08,-16.36,-96.61,3.54,-6.09
13.889830,0.0649,-0.7632,-0.0928,-7.75,3.91,-13.49,-96.80,3.25,-6.06
13.918989,0.0850,-0.7720,-0.1133,-2.87,13.67,-4.70,-96.90,3.05,-6.24
13.918989,-0.0371,-0.7363,-0.1265,-0.37,16.24,-0.85,-96.94,2.99,-6.55
13.979638,-0.1650,-0.6567,-0.1191,-0.37,11.29,-6.04,-96.95,2.91,-6.82
13.979638,-0.2339,-0.5938,-0.0425,-6.59,3.66,-19.59,-97.01,2.64,-6.95
14.009029,-0.2988,-0.5044,-0.0234,-21.18,-14.65,-34.42,-97.28,2.11,-6.80
14.009029,-0.1729,-0.5435,0.0210,-34.67,-23.86,-51.88,-97.86,1.29,-6.26
14.040032,0.2119,-0.7051,-0.1543,-27.47,-2.01,-47.67,-98.51,0.29,-5.87
14.040032,0.1699,-0.7832,-0.2983,-3.05,24.35,-27.04,-98.81,-0.45,-6.00
14.099758,-0.1284,-0.7388,-0.2998,21.85,36.38,-26.73,-98.57,-1.03,-6.61
14.099758,-0.1597,-0.6758,0.0698,20.39,24.78,-43.40,-98.07,-1.79,-7.14
14.128975,0.1050,-0.7666,0.2241,-4.39,12.88,-51.15,-97.90,-2.80,-7.38
14.128975,0.3550,-0.9590,0.0786,-17.40,14.89,-41.87,-98.16,-3.77,-7.51
14.159659,0.4790,-1.0996,-0.2075,-4.64,30.40,-22.34,-98.38,-4.45,-7.90
14.159659,0.4058,-1.0986,-0.3350,16.30,37.29,-3.11,-98.17,-4.76,-8.57
14.219750,0.3203,-1.0205,-0.2769,28.50,31.74,8.67,-97.62,-4.77,-9.28
14.219750,0.2290,-0.9780,-0.0825,25.63,20.02,14.77,-97.01,-4.57,-9.82
14.249982,0.2847,-1.0181,0.0020,14.77,16.24,19.59,-96.58,-4.26,-10.20
14.249982,0.2817,-1.0361,-0.1357,11.90,11.96,31.13,-96.30,-3.77,-10.52
14.278992,0.0688,-0.9951,-0.2104,18.13,6.23,36.19,-95.99,-3.09,-10.76
14.278992,-0.0820,-1.0029,-0.1196,24.41,2.56,28.50,-95.54,-2.43,-10.88
14.340217,0.0586,-1.0869,-0.0605,28.99,10.74,19.65,-95.00,-1.98,-11.04
14.340217,0.2012,-1.0874,-0.0571,32.47,9.58,26.79,-94.36,-1.54,-11.29
14.368963,0.0269,-0.9951,-0.0186,25.15,-0.31,35.77,-93.77,-0.90,-11.41
14.368963,-0.2837,-0.9565,0.0938,12.51,-6.77,25.39,-93.39,-0.25,-11.34
14.398890,-0.1973,-1.0581,-0.0762,8.85,-2.20,4.15,-93.21,0.03,-11.27
14.398890,-0.0078,-1.0830,-0.0557,12.45,-7.39,-0.85,-92.98,0.04,-11.18
14.458996,0.0088,-1.0679,0.0259,6.23,-12.57,1.77,-92.79,0.05,-10.96
14.458996,-0.0952,-1.1436,-0.0044,2.20,-14.65,-0.73,-92.72,0.09,-10.68
14.490256,0.1069,-1.2671,-0.1074,6.84,-10.93,0.00,-92.65,0.06,-10.42
14.490256,0.1992,-1.2563,-0.1094,19.29,-4.94,14.53,-92.38,0.21,-10.27
14.548995,0.0107,-1.0996,0.0068,21.79,-6.53,24.29,-91.94,0.63,-10.18
14.548995,-0.1323,-1.0435,0.1685,11.54,-9.03,17.88,-91.60,1.07,-9.99
14.578987,0.0488,-1.1362,-0.0737,10.44,-7.14,18.49,-91.41,1.41,-9.85
14.578987,0.0732,-1.1265,-0.0991,19.10,-9.46,27.65,-91.10,1.88,-9.67
14.608975,-0.0918,-1.0073,-0.0645,25.63,-9.52,32.53,-90.64,2.50,-9.48
14.608975,-0.3169,-0.9351,0.0464,23.80,-10.74,21.06,-90.13,3.07,-9.26
14.669736,-0.2310,-0.9741,0.0723,19.41,-10.38,4.64,-89.69,3.29,-9.05
14.669736,-0.1484,-1.0103,0.1016,13.24,-10.31,-0.85,-89.35,3.31,-8.83
14.698887,-0.1226,-1.0674,0.0049,12.08,-9.46,-4.21,-89.10,3.25,-8.64
14.698887,-0.1431,-1.1104,-0.0293,17.03,-11.35,-7.69,-88.80,3.13,-8.44
14.729762,-0.0479,-1.1475,0.0752,16.54,-12.63,-11.35,-88.44,2.92,-8.21
14.729762,0.0269,-1.1943,0.0127,16.48,-9.46,-7.75,-88.12,2.71,-8.00
14.790368,0.0513,-1.1953,0.0376,20.81,-10.07,-3.66,-87.73,2.59,-7.81
14.790368,0.0747,-1.1772,0.1313,19.78,-10.44,2.01,-87.30,2.57,-7.61
14.818937,0.0605,-1.1694,0.1240,13.12,-11.54,9.03,-86.97,2.67,-7.38
14.818937,-0.0005,-1.1650,-0.0293,17.64,-10.74,14.28,-86.68,2.90,-7.13
14.849755,-0.1235,-1.0811,-0.0239,27.47,-10.99,13.73,-86.20,3.18,-6.89
14.849755,-0.1626,-1.0010,0.1504,29.72,-10.80,7.32,-85.59,3.37,-6.65
14.909805,-0.1582,-0.9746,0.2837,19.96,-9.40,0.00,-85.08,3.42,-6.44
14.909805,-0.1045,-1.0044,0.2808,6.65,-10.19,-4.39,-84.81,3.35,-6.25
14.945755,-0.0640,-1.0537,0.1216,2.81,-9.83,-4.33,-84.74,3.24,-6.06
14.945755,-0.0786,-1.0894,0.0879,7.69,-9.64,-5.80,-84.62,3.11,-5.87
14.969570,-0.0127,-1.1069,0.0898,13.55,-6.41,-4.39,-84.40,2.99,-5.72
14.969570,-0.0278,-1.0874,0.1016,17.15,-4.82,-1.46,-84.08,2.93,-5.62
15.030177,-0.0566,-1.0605,0.1724,18.49,-4.94,-1.65,-83.71,2.89,-5.53
15.030177,-0.0518,-1.0479,0.2598,10.31,-8.30,-2.32,-83.41,2.84,-5.41
15.059036,-0.0396,-1.0796,0.2007,1.46,-12.76,-1.71,-83.30,2.77,-5.20
15.059036,-0.0737,-1.1211,0.1284,2.69,-12.63,-3.11,-83.26,2.69,-4.95
15.090567,-0.0415,-1.1655,0.1655,6.41,-9.34,-4.88,-83.16,2.58,-4.74
15.090567,0.0210,-1.1943,0.2295,6.71,-5.07,-1.46,-83.01,2.49,-4.61
15.149751,-0.0151,-1.2158,0.2222,4.33,-3.05,2.44,-82.90,2.50,-4.53
15.149751,-0.0674,-1.2178,0.2524,0.24,-3.54,2.38,-82.84,2.55,-4.46
15.179030,-0.0435,-1.2412,0.2437,-5.68,-4.21,1.89,-82.90,2.58,-4.37
15.179030,-0.0552,-1.2549,0.1904,-8.00,-2.14,2.56,-83.04,2.62,-4.30
15.209814,-0.0337,-1.2788,0.2559,-9.40,-0.37,1.16,-83.20,2.65,-4.27
15.209814,0.0210,-1.2969,0.2534,-16.36,0.85,6.47,-83.47,2.73,-4.27
15.269791,-0.0879,-1.2900,0.1743,-17.21,2.50,7.32,-83.81,2.89,-4.28
15.269791,-0.1504,-1.2637,0.1982,-16.36,5.43,0.92,-84.15,2.99,-4.35
15.299067,-0.1089,-1.2437,0.2246,-20.39,8.36,-4.94,-84.52,2.96,-4.49
15.299067,-0.0493,-1.2285,0.2520,-27.59,8.91,-7.81,-85.00,2.85,-4.69
15.329772,-0.0259,-1.2559,0.1504,-34.06,10.56,-6.29,-85.64,2.73,-4.89
15.329772,-0.0918,-1.2759,0.0171,-30.58,11.96,-7.20,-86.30,2.63,-5.13
15.390638,-0.0664,-1.3179,-0.0493,-19.29,15.87,-11.05,-86.81,2.47,-5.42
15.390638,-0.0034,-1.3047,0.0513,-12.33,17.21,-10.25,-87.11,2.28,-5.78
15.419035,-0.0303,-1.2769,0.0771,-16.78,14.28,-7.26,-87.40,2.14,-6.11
15.419035,-0.0479,-1.2666,0.0771,-18.31,11.11,-9.22,-87.76,1.99,-6.37
15.449765,-0.0537,-1.2373,0.1318,-24.72,4.58,-11.23,-88.18,1.80,-6.54
15.449765,-0.0117,-1.2378,0.0854,-33.20,-1.65,-10.93,-88.78,1.58,-6.56
15.509806,-0.0449,-1.2363,-0.1084,-23.25,0.43,-11.23,-89.37,1.37,-6.56
15.509806,-0.0918,-1.2085,-0.1768,-1.83,1.95,-18.31,-89.62,1.08,-6.59
15.538995,0.2026,-1.1890,0.1162,14.89,1.53,-18.49,-89.43,0.69,-6.65
15.538995,0.3721,-1.0928,0.4507,-1.77,1.83,3.97,-89.27,0.54,-6.67
15.569761,0.0864,-1.0347,0.2104,-19.78,0.85,22.34,-89.52,0.84,-6.70
15.569761,-0.2612,-0.9678,-0.1113,-11.84,2.69,12.02,-89.88,1.22,-6.71
15.629739,-0.1919,-0.9316,-0.0752,13.43,5.92,-8.73,-89.84,1.24,-6.82
15.629739,0.0693,-0.8315,0.3359,1.46,0.79,-6.59,-89.62,1.05,-6.89
15.658982,0.0708,-0.8179,0.2539,-26.18,-8.91,5.49,-89.90,1.05,-6.82
15.658982,-0.0884,-0.8564,-0.0557,-32.90,-14.89,6.10,-90.54,1.20,-6.55
15.690801,-0.0908,-0.8735,-0.1616,-13.37,-8.73,-0.61,-91.01,1.25,-6.29
15.690801,-0.0220,-0.8599,-0.1372,7.32,3.60,-1.34,-91.05,1.22,-6.25
15.749753,-0.0142,-0.7773,0.0718,19.04,6.71,3.42,-90.74,1.24,-6.38
15.749753,-0.1787,-0.6787,0.2100,10.68,1.59,5.31,-90.43,1.35,-6.47
15.778947,-0.2612,-0.6309,0.2212,-0.49,-9.77,-1.46,-90.34,1.40,-6.38
15.778947,-0.2563,-0.6167,0.3418,-9.34,-9.28,-15.50,-90.43,1.22,-6.17
15.809807,-0.1914,-0.5962,0.3662,-35.40,-16.48,-25.45,-90.86,0.80,-5.94
15.809807,-0.0659,-0.6987,0.0640,-59.02,-29.48,-29.30,-91.85,0.25,-5.47
15.869795,0.1182,-0.8726,-0.1997,-54.75,-35.58,-27.59,-93.03,-0.32,-4.78
15.869795,0.3267,-0.9492,-0.2549,-38.15,-28.08,-12.02,-93.97,-0.70,-4.11
15.898889,0.2827,-0.9473,-0.3135,-15.01,-12.27,7.63,-94.52,-0.70,-3.71
15.898889,0.0981,-0.8779,-0.2407,2.32,-1.28,14.53,-94.61,-0.44,-3.60
15.959590,0.0596,-0.8398,-0.1504,9.52,5.13,13.73,-94.48,-0.16,-3.67
15.959590,0.0127,-0.8159,-0.0776,9.77,4.94,13.73,-94.27,0.11,-3.80
15.991706,0.0088,-0.7979,0.0352,3.23,-2.50,13.61,-94.12,0.38,-3.83
15.991706,0.0762,-0.7920,0.0566,-6.96,-4.27,18.68,-94.17,0.71,-3.77
16.019330,0.0220,-0.7637,-0.0591,-7.39,-2.50,25.45,-94.33,1.16,-3.72
16.019330,-0.0273,-0.6714,-0.0771,-0.98,3.54,27.71,-94.41,1.70,-3.75
16.079787,-0.1187,-0.5874,-0.1030,1.59,7.87,26.00,-94.40,2.25,-3.91
16.079787,-0.1572,-0.5566,-0.0459,-0.49,5.37,18.43,-94.38,2.69,-4.06
16.108965,-0.1172,-0.5708,-0.0825,-7.51,3.48,14.71,-94.47,3.00,-4.18
16.108965,-0.1860,-0.5640,-0.1816,-9.95,-1.10,10.31,-94.66,3.27,-4.21
16.141124,-0.2119,-0.5625,-0.2139,-4.64,-2.81,0.31,-94.81,3.38,-4.17
16.141124,-0.1411,-0.6147,-0.1104,1.53,1.22,-11.78,-94.83,3.26,-4.14
16.199790,0.0596,-0.6963,-0.0654,4.46,9.09,-12.21,-94.76,2.99,-4.23
16.199790,0.0840,-0.7065,-0.1104,6.53,14.47,-2.99,-94.66,2.83,-4.47
16.228927,-0.0879,-0.6650,-0.1196,9.34,13.24,-1.65,-94.50,2.80,-4.76
16.228927,-0.2646,-0.6221,-0.1099,7.26,5.74,-10.62,-94.33,2.68,-4.95
16.259724,-0.2095,-0.7056,-0.0933,5.49,2.14,-28.08,-94.22,2.28,-4.99
16.259724,-0.0342,-0.7935,-0.0518,7.32,-0.18,-35.83,-94.09,1.63,-4.98
16.320116,0.1230,-0.8452,0.0107,4.27,-3.78,-32.96,-93.96,0.92,-4.92
16.320116,0.1768,-0.9175,0.0068,-0.24,-5.55,-23.13,-93.93,0.38,-4.78
16.348963,0.2578,-0.9722,-0.0249,8.67,0.55,-9.77,-93.86,0.07,-4.70
16.348963,0.2705,-0.8999,0.0488,17.58,11.35,6.16,-93.58,0.03,-4.84
16.379779,0.0757,-0.8330,0.0454,16.60,10.74,15.14,-93.22,0.27,-5.09
16.379779,-0.0811,-0.8154,0.0518,8.79,1.71,13.49,-92.96,0.57,-5.22
16.441191,-0.0396,-0.8853,-0.0161,3.30,0.92,8.79,-92.86,0.78,-5.23
16.441191,0.0020,-0.9258,-0.0933,8.54,1.77,10.38,-92.74,0.97,-5.27
16.468895,-0.0962,-0.8770,-0.0200,9.58,-1.22,7.69,-92.54,1.17,-5.30
16.468895,-0.1099,-0.9512,0.0249,4.58,-5.68,-1.77,-92.40,1.23,-5.20
16.499674,0.1162,-1.0918,-0.0386,9.52,2.87,-1.65,-92.28,1.17,-5.16
16.499674,0.1812,-1.0967,-0.0479,17.82,12.88,11.23,-91.99,1.27,-5.34
16.559727,-0.0796,-0.9585,0.0762,15.62,5.31,13.79,-91.63,1.56,-5.55
16.559727,-0.1270,-0.9526,0.1260,-0.37,-4.58,1.77,-91.50,1.71,-5.53
16.589251,0.0576,-1.0649,-0.0186,1.28,-5.31,0.24,-91.51,1.71,-5.42
16.589251,0.1484,-1.1196,-0.0483,13.12,-1.53,6.77,-91.37,1.78,-5.34
16.619647,0.0659,-1.0278,0.0796,15.01,-3.11,18.43,-91.04,2.04,-5.32
16.619647,-0.0742,-1.0640,0.0293,6.53,-2.87,18.37,-90.85,2.43,-5.23
16.679710,-0.0718,-1.1182,-0.2026,18.98,1.65,16.54,-90.61,2.79,-5.22
16.679710,-0.0234,-1.0869,-0.1455,33.45,2.87,15.99,-90.06,3.10,-5.27
16.708871,-0.1709,-0.9678,0.0942,29.54,-3.60,16.36,-89.39,3.45,-5.26
16.708871,-0.2754,-0.9756,0.1475,12.70,-8.85,3.72,-88.97,3.65,-5.13
16.741383,-0.1172,-1.0918,-0.0195,8.24,-10.80,-2.44,-88.79,3.63,-4.92
16.741383,-0.0581,-1.1157,-0.0479,14.53,-10.50,1.71,-88.54,3.61,-4.70
16.799788,-0.2017,-1.0371,0.0981,12.57,-10.68,0.43,-88.24,3.64,-4.50
16.799788,-0.2334,-1.0557,0.1318,1.53,-14.40,-12.15,-88.09,3.52,-4.25
16.828730,0.0854,-1.1919,-0.0176,3.66,-11.23,-11.29,-88.06,3.22,-4.00
16.828730,0.2148,-1.2524,-0.0615,16.91,-4.64,5.00,-87.84,3.16,-3.85
16.859797,0.0894,-1.1440,0.0698,24.60,0.00,21.36,-87.39,3.46,-3.78
16.859797,-0.2153,-1.0283,0.1187,19.47,-2.20,19.53,-86.94,3.91,-3.74
16.919682,-0.2441,-1.0166,0.1182,15.44,-9.22,7.81,-86.59,4.16,-3.60
16.919682,-0.1562,-0.9946,0.2710,6.84,-11.54,0.73,-86.34,4.22,-3.38
16.948882,-0.2754,-0.9478,0.3252,-12.45,-16.48,-6.16,-86.37,4.16,-3.11
16.948882,-0.1973,-1.0630,0.2285,-29.48,-21.12,-19.47,-86.81,3.86,-2.74
16.981071,0.1323,-1.2563,-0.0356,-19.96,-13.18,-13.67,-87.32,3.47,-2.41
16.981071,0.1528,-1.2739,-0.1235,2.56,-0.24,2.44,-87.48,3.36,-2.29
17.039682,-0.0210,-1.1841,-0.0996,20.20,4.15,11.05,-87.23,3.53,-2.34
17.039682,-0.0732,-1.1001,0.0098,27.16,2.32,10.25,-86.73,3.76,-2.40
17.068918,-0.0508,-1.0679,0.1338,21.79,-2.44,10.50,-86.23,3.97,-2.37
17.068918,-0.0557,-1.0654,0.1528,14.89,-7.02,10.50,-85.86,4.17,-2.25
17.099687,-0.0605,-1.0874,0.1025,12.15,-9.52,9.58,-85.59,4.36,-2.07
17.099687,-0.0488,-1.0986,0.1548,13.98,-8.42,9.16,-85.31,4.53,-1.86
17.159683,-0.0752,-1.0557,0.2539,7.93,-7.20,10.25,-85.07,4.71,-1.69
17.159683,-0.2139,-1.0210,0.2202,-1.34,-7.93,4.52,-85.00,4.86,-1.52
17.189221,-0.2119,-1.0654,0.0596,-1.59,-9.77,-6.23,-85.03,4.81,-1.35
17.189221,-0.0371,-1.1313,0.0742,5.25,-9.03,-9.09,-84.98,4.61,-1.18
17.219699,0.0317,-1.1533,0.0854,11.35,-4.58,-2.08,-84.80,4.49,-1.05
17.219699,-0.0337,-1.1084,0.1299,15.93,-0.85,3.17,-84.51,4.51,-1.00
17.279733,-0.1055,-1.0522,0.2534,13.18,-0.49,2.08,-84.20,4.58,-0.99
17.279733,-0.1426,-1.0410,0.2827,1.53,-3.60,-1.10,-84.05,4.59,-0.94
17.309004,-0.1362,-1.0820,0.1802,-3.85,-4.27,-6.16,-84.09,4.50,-0.87
17.309004,-0.1157,-1.1265,0.1045,-1.22,-3.78,-9.58,-84.14,4.33,-0.81
17.369763,-0.0591,-1.1626,0.1113,4.58,-2.01,-10.13,-84.10,4.13,-0.77
17.369763,0.0049,-1.1792,0.2095,5.49,0.98,-6.10,-83.99,3.96,-0.79
17.398958,-0.0225,-1.1929,0.2310,1.89,4.09,-1.46,-83.91,3.91,-0.85
17.398958,-0.0713,-1.2090,0.1880,-2.87,2.87,-0.37,-83.93,3.91,-0.93
17.429737,-0.1152,-1.2275,0.1689,-5.98,2.62,-1.77,-84.02,3.89,-0.98
17.429737,-0.1255,-1.2856,0.0898,-5.13,4.03,-5.00,-84.15,3.84,-1.05
17.489916,-0.0493,-1.3350,0.0483,2.75,6.53,-3.72,-84.18,3.76,-1.17
17.489916,-0.0464,-1.3301,0.0986,9.22,11.66,-0.37,-84.06,3.75,-1.36
17.518867,-0.0933,-1.2705,0.1558,11.90,12.08,0.92,-83.84,3.80,-1.60
17.518867,-0.1079,-1.1943,0.2715,4.21,8.91,-1.34,-83.68,3.82,-1.82
17.550078,-0.1748,-1.1387,0.3354,-14.65,2.01,-5.80,-83.79,3.78,-1.92
17.550078,-0.1987,-1.1641,0.1240,-24.35,-2.32,-14.34,-84.22,3.58,-1.95
17.609732,-0.1455,-1.2134,0.0679,-22.22,-4.03,-23.68,-84.69,3.19,-1.92
17.609732,0.0654,-1.3018,-0.0166,-11.72,3.66,-22.16,-85.04,2.71,-1.97
17.638711,0.0952,-1.3159,0.0005,-1.89,9.09,-11.05,-85.16,2.41,-2.14
17.638711,-0.0542,-1.2715,0.0703,1.53,8.85,-7.81,-85.16,2.27,-2.35
17.669842,-0.1001,-1.2485,0.1416,-2.01,5.98,-14.22,-85.16,2.07,-2.52
17.669842,0.0044,-1.2378,0.2227,-10.19,1.04,-15.99,-85.28,1.76,-2.62
17.729794,0.1060,-1.2993,0.1348,-15.08,1.53,-10.74,-85.56,1.50,-2.67
17.729794,0.1870,-1.3330,0.0815,-8.36,3.54,-0.85,-85.80,1.39,-2.72
17.758988,0.1558,-1.2598,0.1113,-3.48,6.90,15.87,-85.91,1.56,-2.82
17.758988,-0.0889,-1.1440,0.1040,-1.04,6.10,20.08,-85.95,1.97,-2.92
17.790086,-0.1567,-1.0649,0.2139,-2.81,5.55,11.54,-85.98,2.30,-3.00
17.790086,-0.1133,-1.0415,0.2134,-10.19,3.11,7.45,-86.12,2.49,-3.08
17.849678,-0.0317,-1.0322,0.2524,-14.95,1.16,6.53,-86.37,2.62,-3.10
17.849678,-0.0996,-0.9746,0.1641,-20.57,1.83,9.22,-86.74,2.80,-3.11
17.879014,-0.2031,-0.9399,0.0249,-13.79,0.73,1.10,-87.09,2.92,-3.13
17.879014,-0.1313,-0.9702,-0.0645,-0.43,4.52,-5.92,-87.25,2.86,-3.18
17.909699,0.0713,-0.9883,0.0713,19.71,12.39,-5.68,-87.03,2.74,-3.36
17.909699,0.0942,-0.8809,0.3120,15.56,16.48,8.30,-86.65,2.80,-3.65
17.969705,-0.1118,-0.7856,0.3789,0.00,9.89,11.05,-86.50,3.04,-3.92
17.969705,-0.2456,-0.7158,0.3706,-20.39,-0.18,3.36,-86.73,3.21,-3.99
17.998934,-0.3281,-0.7427,0.1968,-27.59,-7.81,-13.37,-87.24,3.11,-3.91
17.998934,-0.1235,-0.8525,0.1567,-19.47,-7.75,-29.97,-87.70,2.64,-3.77
18.029623,0.1753,-0.9097,0.2759,-18.98,-4.76,-23.50,-88.06,2.07,-3.69
18.029623,0.3130,-0.9131,0.2759,-27.16,-3.54,-3.36,-88.52,1.80,-3.61
18.089956,0.1953,-0.8203,0.1704,-30.94,3.48,16.97,-89.12,1.96,-3.60
18.089956,-0.1304,-0.7266,-0.1006,-22.83,9.46,16.36,-89.67,2.35,-3.72
18.118850,-0.2256,-0.7007,-0.2837,-2.87,14.65,1.28,-89.93,2.53,-3.97
18.118850,0.0073,-0.7686,-0.1714,14.89,13.31,-7.63,-89.77,2.44,-4.27
18.149751,0.1738,-0.7725,0.0264,2.87,4.70,8.67,-89.58,2.46,-4.45
18.149751,0.1294,-0.8403,-0.0308,-1.59,-0.24,17.09,-89.60,2.74,-4.45
18.209776,0.1646,-0.8359,-0.0278,4.88,8.12,27.04,-89.58,3.19,-4.52
18.209776,0.0020,-0.7769,0.0425,11.54,13.24,32.04,-89.40,3.81,-4.72
18.238997,-0.1284,-0.6963,0.1948,5.19,11.90,30.33,-89.23,4.45,-4.96
18.238997,-0.2075,-0.6421,0.2046,-13.12,4.27,26.92,-89.31,5.04,-5.10
18.269680,-0.2622,-0.6470,0.0430,-25.82,-4.70,17.21,-89.73,5.49,-5.08
18.269680,-0.1611,-0.7183,-0.0264,-26.37,-7.20,5.74,-90.25,5.70,-4.93
18.329766,-0.0010,-0.7881,-0.1045,-22.46,-4.27,5.43,-90.73,5.80,-4.82
18.329766,0.0210,-0.7788,-0.1138,-17.03,-3.36,11.23,-91.11,5.97,-4.74
18.358967,-0.0854,-0.7139,-0.0986,-14.34,-0.73,14.40,-91.41,6.25,-4.70
18.358967,-0.2031,-0.6426,-0.0625,-14.34,-2.20,11.72,-91.69,6.51,-4.67
18.389946,-0.3032,-0.6099,-0.0498,-19.29,-5.00,2.08,-92.01,6.66,-4.60
18.389946,-0.2520,-0.6553,-0.1099,-19.96,-7.69,-7.87,-92.40,6.60,-4.47
18.449689,-0.1416,-0.7095,-0.1021,-15.32,-3.30,-11.96,-92.74,6.39,-4.34
18.449689,-0.0293,-0.7568,-0.1079,-8.24,6.10,-10.38,-92.98,6.16,-4.37
18.479105,-0.0278,-0.7822,-0.0962,-2.32,13.37,-6.10,-93.09,5.99,-4.56
18.479105,-0.0488,-0.7817,-0.1025,1.89,17.27,-0.18,-93.11,5.93,-4.88
18.509759,-0.1938,-0.7441,-0.0713,3.05,13.49,-1.40,-93.09,5.92,-5.20
18.509759,-0.2324,-0.7168,0.0630,-3.36,7.45,-10.86,-93.10,5.80,-5.39
18.569802,-0.0479,-0.7959,0.0732,-8.06,11.41,-17.03,-93.24,5.50,-5.56
18.569802,0.1724,-0.8804,0.0156,-1.59,23.01,-11.29,-93.38,5.20,-5.90
18.598934,0.3145,-0.9033,0.0762,5.86,35.40,4.33,-93.36,5.10,-6.49
18.598934,0.2930,-0.8955,0.0205,3.97,43.15,28.99,-93.31,5.42,-7.31
18.629830,-0.0439,-0.8018,-0.1650,-0.12,39.86,48.16,-93.36,6.21,-8.18
18.629830,-0.4106,-0.7139,-0.3262,3.48,28.50,40.95,-93.41,7.12,-8.90
18.689840,-0.5923,-0.6855,-0.2437,9.22,14.34,14.59,-93.31,7.67,-9.35
18.689840,-0.3560,-0.7695,-0.0459,4.33,4.27,-10.38,-93.18,7.66,-9.51
18.718908,-0.0664,-0.9287,-0.1016,3.97,7.14,-9.09,-93.14,7.44,-9.60
18.718908,-0.1055,-0.9878,-0.1045,18.92,13.31,-3.91,-92.93,7.32,-9.81
18.779784,-0.0659,-0.9971,0.0703,30.09,23.86,-5.55,-92.46,7.22,-10.18
18.779784,-0.0210,-1.0278,0.0244,32.78,29.05,-1.28,-91.88,7.14,-10.74
18.809284,-0.1113,-0.9966,0.0474,31.74,20.57,3.85,-91.29,7.19,-11.24
18.809284,-0.2690,-0.9048,0.2104,22.34,12.57,-1.04,-90.76,7.25,-11.58
18.840066,-0.1763,-0.9624,0.3140,3.48,5.68,-17.09,-90.53,7.05,-11.75
18.840066,0.0889,-1.0542,0.1367,-6.90,-2.08,-10.44,-90.59,6.75,-11.79
18.899718,-0.0293,-1.0005,0.1084,-12.70,-7.75,-0.98,-90.78,6.66,-11.69
18.899718,-0.1958,-0.9946,0.1431,-20.32,-10.07,-6.77,-91.09,6.61,-11.48
18.928999,-0.0005,-1.0889,-0.1196,-17.46,-7.75,-10.74,-91.48,6.41,-11.32
18.928999,0.1982,-1.1338,-0.1772,-6.10,-10.01,1.89,-91.69,6.31,-11.13
18.959769,0.0708,-1.0093,-0.1860,5.37,-6.77,22.40,-91.68,6.58,-10.96
18.959769,-0.3726,-0.8516,-0.0947,14.10,-9.46,17.88,-91.44,7.04,-10.82
19.019775,-0.3115,-0.9219,0.0308,12.76,-7.93,-7.57,-91.15,7.12,-10.62
19.019775,0.0640,-1.0684,-0.1270,20.94,-5.98,-2.32,-90.81,6.97,-10.49
19.048918,-0.0630,-1.0151,-0.0508,27.16,-2.75,10.86,-90.30,7.09,-10.39
19.048918,-0.3931,-0.8838,-0.0078,27.22,-11.17,2.38,-89.73,7.26,-10.27
19.079714,-0.3096,-0.9253,0.1548,18.13,-18.92,-21.12,-89.23,7.05,-9.94
19.079714,0.1416,-1.1616,0.0059,17.03,-16.24,-18.80,-88.87,6.58,-9.60
19.139684,0.1816,-1.2109,-0.0737,27.47,-10.25,5.13,-88.40,6.44,-9.34
19.139684,-0.1445,-1.0693,-0.0156,35.28,-7.45,14.22,-87.73,6.68,-9.17
19.168866,-0.3325,-0.9409,0.1880,28.38,-15.14,1.28,-87.04,6.83,-8.93
19.168866,-0.2568,-0.9609,0.2725,12.15,-21.24,-13.00,-86.61,6.66,-8.56
19.199689,-0.1401,-1.0503,0.1245,2.14,-23.93,-15.81,-86.45,6.33,-8.14
19.199689,-0.1025,-1.0786,0.1001,0.43,-27.47,-14.71,-86.37,5.98,-7.64
19.259735,-0.0288,-1.1118,0.1396,-3.72,-26.49,-11.84,-86.36,5.67,-7.11
19.259735,0.0801,-1.1787,-0.0312,2.01,-18.13,-1.10,-86.37,5.49,-6.69
19.290140,0.0234,-1.2197,-0.1553,22.09,-7.63,11.54,-86.11,5.59,-6.41
19.290140,-0.1079,-1.1470,-0.0898,45.29,-0.37,18.31,-85.40,5.91,-6.31
19.318908,-0.2510,-1.0293,0.1118,51.51,1.59,13.18,-84.39,6.25,-6.30
19.318908,-0.2197,-1.0112,0.2959,42.11,-3.36,2.93,-83.44,6.39,-6.26
19.379851,-0.1831,-1.0151,0.3979,22.46,-8.06,0.79,-82.78,6.41,-6.14
19.379851,-0.2373,-1.0112,0.3462,3.97,-14.47,-3.78,-82.51,6.35,-5.93
19.409492,-0.1289,-1.1089,0.2095,-3.97,-17.70,-8.24,-82.51,6.17,-5.60
19.409492,-0.0029,-1.1880,0.0713,7.39,-11.29,-2.14,-82.47,6.02,-5.33
19.439730,-0.0518,-1.1538,0.1479,16.85,-4.88,5.13,-82.18,6.04,-5.16
19.439730,-0.1875,-1.0850,0.2202,16.91,-2.99,5.07,-81.83,6.15,-5.08
19.499705,-0.2007,-1.0366,0.2954,9.58,-8.06,-0.92,-81.55,6.17,-4.96
19.499705,-0.1372,-1.0269,0.3115,0.24,-10.93,-4.46,-81.44,6.08,-4.78
19.528978,-0.1235,-1.0356,0.2676,-7.39,-12.39,-5.74,-81.50,5.94,-4.56
19.528978,-0.1069,-1.0449,0.2163,-8.91,-12.08,-5.86,-81.64,5.78,-4.33
19.559765,-0.1035,-1.0454,0.1631,-6.35,-8.00,-5.80,-81.79,5.64,-4.16
19.559765,-0.0410,-1.0615,0.1509,0.06,-5.07,-2.99,-81.84,5.53,-4.04
19.619684,-0.0635,-1.0488,0.1670,5.62,0.18,1.53,-81.77,5.52,-4.00
19.619684,-0.1455,-1.0000,0.1982,8.91,3.05,0.67,-81.62,5.56,-4.03
19.648908,-0.1772,-0.9497,0.2734,5.98,5.92,-4.70,-81.46,5.54,-4.13
19.648908,-0.1450,-0.9360,0.3906,-6.35,5.55,-10.44,-81.47,5.41,-4.27
19.679760,-0.1367,-0.9663,0.2373,-20.26,2.75,-13.18,-81.77,5.19,-4.42
19.679760,-0.0879,-1.0396,0.1226,-21.73,-6.77,-17.46,-82.20,4.88,-4.41
19.739737,0.0327,-1.0796,0.0845,-17.27,-4.39,-12.76,-82.59,4.55,-4.34
19.739737,-0.0010,-1.1030,0.0459,-10.31,-2.01,-7.26,-82.86,4.36,-4.30
19.768901,0.0376,-1.1475,-0.0439,3.42,0.06,-1.16,-82.93,4.27,-4.30
19.768901,0.0195,-1.1357,0.0483,16.54,2.08,5.13,-82.70,4.33,-4.32
19.799691,-0.0723,-1.0806,0.1616,18.25,-0.37,8.36,-82.33,4.49,-4.32
19.799691,-0.0977,-1.0737,0.2588,13.06,-3.48,5.86,-82.01,4.63,-4.25
19.859936,-0.0928,-1.1001,0.2520,6.90,-4.46,4.46,-81.81,4.72,-4.15
19.859936,-0.1270,-1.1157,0.2686,2.26,-5.19,2.01,-81.71,4.77,-4.04
19.889188,-0.1021,-1.1680,0.2373,-0.43,-3.30,-0.43,-81.69,4.77,-3.95
19.889188,-0.0869,-1.2163,0.2168,0.79,0.06,0.06,-81.69,4.76,-3.92
19.919818,-0.1055,-1.2280,0.2607,0.73,2.26,0.06,-81.66,4.77,-3.94
19.919818,-0.1128,-1.2339,0.3154,-6.16,3.72,-1.83,-81.72,4.77,-4.01
19.980934,-0.0933,-1.2695,0.2939,-13.43,6.47,-3.48,-81.93,4.74,-4.11
19.980934,-0.1118,-1.2749,0.2139,-18.74,5.37,-3.66,-82.26,4.69,-4.25
20.009996,-0.1260,-1.2935,0.1665,-20.45,2.20,-6.77,-82.67,4.61,-4.33
20.009996,-0.0659,-1.3301,0.1279,-16.78,6.41,-8.00,-83.05,4.47,-4.44
20.039720,0.0010,-1.3560,0.0249,-4.64,12.76,-4.15,-83.29,4.37,-4.65
20.039720,-0.0034,-1.2656,0.0806,6.10,16.66,1.83,-83.26,4.40,-4.96
20.099703,-0.2085,-1.0889,0.1553,2.81,11.41,1.40,-83.17,4.50,-5.25
20.099703,-0.2803,-1.0615,0.2900,-9.89,2.69,-15.38,-83.25,4.39,-5.38
20.129432,-0.1294,-1.0996,0.1699,-22.22,0.06,-22.03,-83.60,4.00,-5.47
20.129432,-0.0591,-1.1646,0.0830,-23.01,-3.85,-24.35,-84.06,3.53,-5.49
20.219835,0.0532,-1.2100,0.1289,-21.00,-1.59,-20.94,-84.50,3.07,-5.49
20.219835,0.0815,-1.2676,0.1011,-19.35,0.12,-12.76,-84.91,2.74,-5.50
20.222029,0.0869,-1.2744,0.0444,-11.17,6.84,-5.92,-85.22,2.57,-5.61
20.222029,0.0142,-1.1968,0.1094,-7.75,4.21,-1.77,-85.39,2.52,-5.75
20.249905,0.0122,-1.1245,0.2510,-21.48,-8.97,0.37,-85.66,2.50,-5.69
20.249905,0.1240,-1.1914,0.1602,-28.20,-8.67,5.00,-86.19,2.53,-5.47
20.311964,0.1787,-1.2197,-0.0220,-12.08,3.36,16.85,-86.61,2.75,-5.41
20.311964,-0.0068,-1.0732,-0.0283,6.29,7.75,26.25,-86.64,3.21,-5.50
20.338955,-0.2871,-0.8608,0.1538,4.09,0.00,21.91,-86.50,3.73,-5.55
20.338955,-0.3813,-0.8027,0.1846,-11.60,-12.15,5.80,-86.58,4.00,-5.38
20.369639,-0.1846,-0.9419,0.0811,-12.82,-13.31,-7.14,-86.84,3.94,-5.11
20.369639,0.1084,-1.0396,0.0732,-4.76,-11.35,-1.89,-87.00,3.80,-4.88
20.429844,0.0747,-1.0234,0.1675,-0.73,-8.85,12.76,-87.02,3.91,-4.66
20.429844,-0.0796,-0.9717,0.1128,4.09,-2.50,19.41,-86.99,4.24,-4.53
20.461623,-0.2402,-0.8892,0.1372,13.73,-0.12,15.08,-86.79,4.60,-4.48
20.461623,-0.3091,-0.7812,0.3325,6.23,-2.62,5.07,-86.56,4.81,-4.44
20.493591,-0.2344,-0.8164,0.2705,-11.66,-9.52,-4.27,-86.62,4.80,-4.31
20.493591,-0.0376,-0.9404,0.1079,-9.22,-6.71,-6.04,-86.85,4.66,-4.14
20.549531,0.0669,-0.9287,0.1777,0.31,2.56,3.17,-86.91,4.63,-4.11
20.549531,-0.1255,-0.8296,0.2632,-3.11,4.88,8.12,-86.93,4.78,-4.19
20.579016,-0.2363,-0.7881,0.2935,-9.95,1.04,-0.98,-87.07,4.87,-4.24
20.579016,-0.0952,-0.7954,0.3071,-21.24,0.67,-5.62,-87.37,4.78,-4.26
20.610375,-0.0684,-0.8135,0.2031,-30.03,-4.82,-4.33,-87.90,4.69,-4.24
20.610375,-0.0088,-0.8413,0.1479,-37.11,-6.29,-1.95,-88.57,4.61,-4.11
20.669724,0.0107,-0.8677,0.0293,-31.37,-1.34,2.69,-89.26,4.63,-4.03
20.669724,-0.0869,-0.7964,0.0439,-23.50,3.54,3.97,-89.80,4.71,-4.06
20.698827,-0.1611,-0.7139,0.1172,-27.71,-2.08,-3.60,-90.29,4.72,-4.10
20.698827,-0.0752,-0.6987,0.1680,-44.01,-13.24,-11.05,-90.98,4.56,-3.93
20.729797,0.0815,-0.7710,0.0000,-54.32,-18.55,-10.68,-91.98,4.33,-3.59
20.729797,0.2036,-0.8140,-0.1997,-46.81,-9.77,-1.28,-92.99,4.22,-3.30
20.790135,0.1973,-0.7734,-0.3188,-31.43,0.24,13.67,-93.76,4.35,-3.22
20.790135,-0.0107,-0.6851,-0.3804,-17.58,-0.31,21.36,-94.24,4.74,-3.26
20.818935,-0.2085,-0.5601,-0.2656,-13.31,-9.46,15.20,-94.51,5.13,-3.18
20.818935,-0.2275,-0.5361,-0.1909,-17.58,-19.71,2.93,-94.80,5.32,-2.89
20.849711,-0.1772,-0.5503,-0.1060,-19.53,-25.09,-5.55,-95.13,5.31,-2.42
20.849711,-0.0835,-0.5830,-0.0161,-21.91,-19.59,-10.93,-95.51,5.17,-1.95
20.910583,0.1172,-0.6846,-0.0776,-18.68,-2.50,-5.68,-95.91,5.00,-1.71
20.910583,0.1338,-0.7373,-0.2769,-2.75,13.92,9.46,-96.14,5.04,-1.86
20.938966,-0.1304,-0.6416,-0.2729,10.38,19.47,15.26,-96.06,5.30,-2.24
20.938966,-0.3735,-0.5542,-0.2163,8.73,8.12,1.28,-95.87,5.46,-2.54
20.969780,-0.2393,-0.6040,-0.1562,0.00,-1.40,-17.88,-95.80,5.27,-2.58
20.969780,0.0596,-0.7676,-0.2046,0.85,-2.99,-19.29,-95.80,4.87,-2.49
21.029773,0.1646,-0.8535,-0.1577,5.37,-1.28,-4.88,-95.72,4.63,-2.43
21.029773,-0.0273,-0.8115,-0.0068,4.46,-1.89,4.70,-95.60,4.66,-2.40
21.058948,-0.0791,-0.8262,-0.0259,4.88,7.20,2.69,-95.53,4.75,-2.44
21.058948,-0.0327,-0.8745,-0.1011,15.75,15.87,3.66,-95.34,4.78,-2.70
21.090110,-0.1187,-0.7944,0.0649,18.49,17.21,7.69,-94.99,4.88,-3.06
21.090110,-0.2822,-0.7534,0.1733,2.81,8.91,-0.98,-94.78,4.97,-3.31
21.149749,-0.0322,-0.8657,-0.0024,-2.26,11.60,-7.63,-94.83,4.83,-3.49
21.149749,0.1167,-0.9531,-0.1797,11.90,20.63,2.62,-94.77,4.76,-3.82
21.179016,-0.0107,-0.9263,-0.1489,29.42,29.54,13.85,-94.37,4.92,-4.35
21.179016,-0.2075,-0.8423,0.0063,33.87,27.89,11.84,-93.75,5.17,-4.95
21.210847,-0.3486,-0.7949,0.1274,21.06,16.24,0.06,-93.22,5.29,-5.41
21.210847,-0.3652,-0.8662,0.2100,3.66,5.98,-19.59,-93.00,5.09,-5.60
21.269736,-0.1113,-0.9961,0.1069,-4.88,2.87,-31.56,-93.04,4.54,-5.66
21.269736,0.0527,-1.0981,0.0830,-6.77,3.97,-27.71,-93.16,3.94,-5.71
21.298958,0.1997,-1.1841,-0.0156,-5.00,8.48,-16.54,-93.30,3.48,-5.83
21.298958,0.2549,-1.2124,-0.1401,7.45,13.92,3.17,-93.29,3.35,-6.05
21.329744,0.0693,-1.1128,-0.1348,21.24,19.41,18.07,-93.00,3.59,-6.39
21.329744,-0.1411,-0.9873,-0.0225,26.25,17.88,17.27,-92.52,3.96,-6.80
21.390116,-0.1704,-0.9478,0.0801,20.87,16.36,8.97,-92.06,4.22,-7.14
21.390116,-0.1743,-0.9507,0.0903,8.61,8.61,2.62,-91.77,4.33,-7.39
21.450387,-0.1567,-1.0088,0.0049,-3.60,0.18,-4.88,-91.75,4.31,-7.47
21.450387,-0.1011,-1.0449,-0.1094,-5.00,-5.80,-9.64,-91.84,4.16,-7.41
21.450595,0.0190,-1.0947,-0.1064,-2.08,-7.93,-11.54,-91.90,3.94,-7.26
21.450595,0.1836,-1.1406,-0.1196,3.23,-8.54,-1.34,-91.88,3.81,-7.08
21.511086,0.2148,-1.1260,-0.0996,12.63,-1.40,15.32,-91.71,3.96,-6.98
21.511086,0.0449,-1.0508,-0.1035,21.55,8.36,28.69,-91.37,4.43,-7.06
21.538986,-0.2319,-0.9619,-0.1660,27.65,6.04,26.92,-90.88,5.02,-7.23
21.538986,-0.2661,-0.9878,-0.1157,35.34,-4.15,11.96,-90.24,5.41,-7.22
21.598826,-0.1006,-0.9824,0.0806,35.83,-8.42,4.70,-89.50,5.54,-7.09
21.598826,-0.0942,-0.9448,0.1797,24.29,-11.41,8.24,-88.87,5.66,-6.88
21.629702,-0.3247,-0.8887,0.2246,9.28,-18.55,2.62,-88.51,5.79,-6.58
21.629702,-0.4038,-0.8433,0.2993,-11.60,-23.80,-15.62,-88.50,5.64,-6.15
21.659008,-0.2886,-0.9385,0.2612,-33.51,-26.12,-32.23,-88.93,5.12,-5.65
21.659008,0.0547,-1.1587,0.0010,-36.93,-18.55,-30.09,-89.66,4.44,-5.22
21.719627,0.1123,-1.2490,-0.2173,-18.25,-13.79,-12.39,-90.20,4.02,-4.93
21.719627,0.0117,-1.2510,-0.1572,4.39,-11.41,-1.71,-90.30,3.90,-4.66
21.748976,-0.0171,-1.1851,-0.1001,21.42,-2.50,4.64,-90.03,3.93,-4.52
21.748976,-0.0825,-1.1050,-0.0415,33.75,1.53,7.26,-89.45,4.06,-4.53
21.779785,-0.1895,-0.9849,0.1362,31.37,0.85,4.52,-88.78,4.20,-4.55
21.779785,-0.2437,-0.9888,0.1899,23.56,-2.20,-5.43,-88.23,4.20,-4.53
21.839803,-0.0928,-1.0396,0.1909,13.24,-3.36,-11.29,-87.86,4.00,-4.48
21.839803,0.0190,-1.0928,0.0479,12.27,-2.38,-5.31,-87.63,3.83,-4.43
21.869087,-0.0728,-1.0625,0.0356,18.37,0.67,-1.40,-87.31,3.78,-4.42
21.869087,-0.2021,-1.0107,0.0596,21.06,1.28,-7.08,-86.91,3.72,-4.45
21.899857,-0.0991,-1.0449,0.1577,20.08,0.49,-16.05,-86.49,3.47,-4.49
21.899857,0.0449,-1.0239,0.1973,13.00,-1.59,-9.77,-86.15,3.20,-4.51
21.959760,-0.0767,-1.0068,0.1963,2.50,-6.35,-6.41,-86.00,3.07,-4.44
21.959760,-0.1079,-1.0547,0.1636,-3.48,-9.52,-13.61,-86.02,2.85,-4.28
21.989302,0.0850,-1.1719,0.0474,-0.18,-2.01,-13.85,-86.07,2.54,-4.20
21.989302,0.1538,-1.2358,-0.0635,13.55,0.37,-0.79,-85.93,2.41,-4.20
22.019745,0.0806,-1.1729,0.0420,23.93,-0.79,9.64,-85.53,2.52,-4.19
22.019745,-0.0474,-1.0815,0.2207,21.30,-3.54,11.17,-85.05,2.74,-4.11
22.079756,-0.0405,-1.0977,0.1758,14.28,-1.16,7.32,-84.72,2.92,-4.05
22.079756,-0.0049,-1.0972,0.1602,17.58,0.00,8.79,-84.39,3.07,-4.02
22.109004,-0.0186,-1.0278,0.2856,11.78,0.43,12.21,-84.07,3.28,-4.00
22.109004,-0.1348,-0.9985,0.2603,0.37,0.37,11.35,-83.96,3.54,-3.97
22.139724,-0.1729,-1.0020,0.1631,-3.72,-3.17,4.88,-84.01,3.70,-3.93
22.139724,-0.1733,-0.9717,0.1851,-6.29,-5.25,-0.92,-84.10,3.73,-3.83
22.199861,-0.2168,-0.9712,0.1875,-7.39,-2.75,-10.50,-84.24,3.61,-3.76
22.199861,-0.1094,-1.0522,0.1196,-5.80,0.18,-20.20,-84.38,3.29,-3.77
22.228927,0.1328,-1.1104,0.0884,3.66,3.11,-12.51,-84.40,2.94,-3.86
22.228927,0.0718,-1.0112,0.1587,6.53,6.59,2.38,-84.28,2.87,-3.97
22.259703,-0.1982,-0.9106,0.1963,2.08,4.46,1.16,-84.19,2.97,-4.08
22.259703,-0.2793,-0.8945,0.1807,-3.78,-1.46,-17.46,-84.21,2.82,-4.12
22.319776,-0.0015,-0.9810,0.1499,-4.09,-3.05,-27.95,-84.30,2.32,-4.13
22.319776,0.1616,-0.9883,0.1138,-2.81,-1.46,-15.62,-84.36,1.87,-4.15
22.349079,0.0078,-0.9526,0.1143,-2.81,-3.60,-7.69,-84.41,1.67,-4.11
22.349079,0.6699,-1.1377,0.7603,-24.90,22.83,-6.16,-84.59,1.48,-4.30
22.380283,-0.2998,-1.0557,-0.0205,-41.20,-19.84,12.08,-85.39,1.71,-4.25
22.380283,-0.2295,-0.9653,0.0835,-32.84,-9.28,-4.39,-86.12,1.72,-3.91
22.439772,0.1826,-1.0894,-0.0386,-24.72,0.00,-4.58,-86.69,1.56,-3.86
22.439772,0.0518,-1.0811,-0.1680,-10.31,-0.61,4.15,-87.03,1.59,-3.86
22.471685,-0.0112,-1.0391,-0.0439,0.06,0.85,4.46,-87.12,1.68,-3.85
22.471685,-0.0913,-0.9824,0.0977,0.98,5.98,1.28,-87.08,1.75,-3.91
22.501745,-0.0664,-1.0063,0.0576,0.61,4.27,-2.08,-87.08,1.75,-4.03
22.501745,-0.0112,-0.9912,0.1040,1.34,1.22,-1.59,-87.05,1.71,-4.08
22.560180,0.0000,-0.9805,0.1157,-0.49,1.89,-0.18,-87.04,1.71,-4.11
22.560180,-0.0293,-0.9907,0.0859,-1.46,3.23,0.00,-87.07,1.71,-4.17
22.589287,-0.0430,-0.9956,0.0708,-1.40,0.98,0.43,-87.09,1.73,-4.21
22.589287,-0.0645,-0.9873,0.0869,-2.93,0.79,-0.79,-87.14,1.74,-4.21
22.619759,-0.0249,-1.0083,0.0498,-2.69,1.10,-0.73,-87.20,1.72,-4.23
22.619759,0.0107,-1.0005,0.0830,-0.55,0.85,-0.12,-87.23,1.71,-4.24
22.680217,0.0000,-0.9849,0.1240,-2.99,0.79,1.04,-87.26,1.73,-4.26
22.680217,0.0044,-1.0098,0.0571,-3.30,1.46,1.71,-87.33,1.76,-4.28
22.709502,-0.0532,-1.0063,0.0205,0.43,1.04,0.49,-87.35,1.79,-4.30
22.709502,-0.0503,-0.9922,0.0776,0.55,2.87,-0.67,-87.34,1.79,-4.34
22.738963,-0.0498,-1.0059,0.0371,1.83,5.98,-2.44,-87.31,1.77,-4.43
22.738963,-0.0312,-0.9902,0.0679,1.28,5.19,-1.46,-87.28,1.75,-4.52
22.799737,-0.0381,-1.0068,0.0347,3.30,1.28,-1.83,-87.24,1.72,-4.61
22.799737,-0.0273,-0.9849,0.1040,0.18,-5.62,0.85,-87.19,1.72,-4.55
22.829025,-0.0405,-1.0088,0.0796,0.31,-8.48,-0.24,-87.19,1.72,-4.39
22.829025,-0.0254,-0.9771,0.1128,0.00,-10.25,0.00,-87.17,1.70,-4.21
22.859759,-0.0288,-0.9951,0.0806,-1.22,-8.48,-0.55,-87.18,1.69,-4.02
22.859759,-0.0303,-0.9932,0.0645,-0.43,-12.57,0.85,-87.18,1.67,-3.83
22.919734,0.0171,-1.0396,0.1709,-4.09,-21.36,1.77,-87.24,1.68,-3.39
22.919734,0.0415,-1.0127,0.0454,-0.67,-22.09,1.34,-87.26,1.65,-3.02
22.950702,-0.0239,-0.9897,0.1304,-0.92,-19.90,0.67,-87.26,1.65,-2.60
22.950702,-0.0068,-0.9863,0.1362,-4.09,-16.30,-0.06,-87.30,1.64,-2.22
23.009788,0.0249,-1.0215,0.0264,-4.76,-2.56,-1.83,-87.41,1.61,-2.05
23.009788,-0.1533,-1.0449,-0.2422,4.15,-24.23,4.58,-87.41,1.61,-1.88
23.039090,-0.1689,-0.9688,0.1367,5.37,-49.26,-0.92,-87.27,1.59,-1.06
23.039090,0.1074,-0.9604,0.2168,4.27,-35.71,0.98,-87.15,1.54,-0.16
23.069775,0.1875,-0.9932,0.1602,1.89,-15.50,0.79,-87.09,1.51,0.30
23.069775,0.0742,-0.9702,0.1714,-1.71,-3.66,3.97,-87.08,1.56,0.48
23.129835,-0.0469,-0.9673,0.1597,-5.86,-1.77,-0.73,-87.15,1.58,0.50
23.129835,-0.0547,-0.9565,0.1831,-11.47,-2.50,1.46,-87.32,1.60,0.57
23.158995,-0.0562,-1.0317,-0.0010,-11.96,1.04,-3.17,-87.58,1.59,0.58
23.158995,0.0293,-1.0688,-0.1182,-0.49,-6.90,0.67,-87.71,1.57,0.65
23.190044,0.0703,-0.9956,0.0723,6.41,3.23,0.73,-87.61,1.58,0.70
23.190044,-0.1235,-0.9609,0.1025,1.04,4.64,0.24,-87.54,1.61,0.59
23.249746,-0.0547,-1.0024,0.0415,-1.34,-0.92,-0.12,-87.56,1.62,0.59
23.249746,-0.0156,-1.0083,0.0454,1.46,0.00,-0.55,-87.55,1.61,0.59
23.279041,-0.0518,-0.9683,0.1382,0.00,0.37,-0.37,-87.53,1.61,0.59
23.279041,0.0107,-0.9912,0.1040,-2.93,0.24,-0.55,-87.56,1.59,0.58
23.309686,-0.0439,-1.0151,0.0244,-1.65,0.92,-0.18,-87.62,1.60,0.57
23.309686,-0.0459,-1.0083,0.0186,2.50,1.71,-1.40,-87.60,1.59,0.55
23.369762,0.0083,-0.9746,0.1230,0.73,1.46,-0.12,-87.56,1.58,0.52
23.369762,-0.0176,-0.9937,0.0771,-1.95,0.18,0.06,-87.58,1.58,0.51
23.399150,-0.0186,-1.0088,0.0308,-0.18,-0.06,-0.12,-87.60,1.59,0.51
23.399150,-0.0156,-1.0010,0.0586,1.53,-0.06,0.06,-87.58,1.59,0.51
23.429876,-0.0244,-0.9873,0.0962,0.73,0.00,-0.06,-87.55,1.59,0.51
23.429876,-0.0215,-0.9902,0.0918,-0.73,0.12,-0.18,-87.55,1.59,0.51
23.490192,-0.0200,-1.0010,0.0601,-0.55,0.12,-0.18,-87.56,1.59,0.51
23.490192,-0.0161,-1.0020,0.0601,0.55,0.00,0.00,-87.56,1.59,0.51
23.519021,-0.0210,-0.9912,0.0913,0.49,-0.06,0.00,-87.54,1.60,0.51
23.519021,-0.0234,-0.9893,0.0928,-0.79,-0.06,-0.18,-87.54,1.60,0.51
23.549857,-0.0156,-1.0005,0.0557,-1.10,0.00,-0.18,-87.56,1.60,0.51
23.549857,-0.0220,-1.0049,0.0391,0.43,0.06,0.00,-87.57,1.60,0.51
23.609226,-0.0166,-0.9966,0.0762,1.40,0.00,-0.06,-87.54,1.60,0.51
23.609226,-0.0244,-0.9854,0.1118,0.06,0.00,0.00,-87.52,1.60,0.51
23.639787,-0.0239,-0.9912,0.0913,-1.34,0.00,-0.37,-87.54,1.60,0.51
23.639787,-0.0151,-1.0029,0.0488,-0.79,0.00,0.00,-87.56,1.60,0.51
23.669758,-0.0225,-1.0020,0.0449,0.67,0.00,-0.18,-87.56,1.61,0.51
23.669758,-0.0146,-0.9927,0.0835,0.85,0.00,0.00,-87.54,1.61,0.51
23.729364,-0.0293,-0.9893,0.0962,-0.24,0.06,-0.24,-87.53,1.61,0.51
23.729364,-0.0117,-0.9976,0.0732,-0.79,0.00,-0.12,-87.54,1.61,0.51
23.759761,-0.0259,-1.0010,0.0532,0.00,0.00,0.00,-87.55,1.61,0.51
23.759761,-0.0156,-0.9966,0.0708,0.61,0.00,-0.06,-87.54,1.61,0.51
23.790085,-0.0249,-0.9917,0.0864,-0.06,0.00,0.06,-87.53,1.61,0.51
23.790085,-0.0200,-0.9951,0.0757,-0.49,0.06,-0.31,-87.53,1.61,0.51
23.849557,-0.0176,-1.0000,0.0601,-0.06,0.00,0.06,-87.54,1.61,0.51
23.849557,-0.0215,-0.9976,0.0698,0.49,0.00,-0.18,-87.53,1.62,0.51
23.878869,-0.0171,-0.9912,0.0864,0.00,0.00,0.06,-87.52,1.62,0.51
23.878869,-0.0264,-0.9937,0.0767,-0.61,0.00,-0.31,-87.53,1.63,0.51
23.909502,-0.0127,-1.0005,0.0576,-0.24,0.00,0.00,-87.54,1.62,0.51
23.909502,-0.0278,-0.9985,0.0591,0.55,0.00,-0.12,-87.53,1.63,0.51
23.970132,-0.0132,-0.9937,0.0850,0.43,0.00,0.00,-87.52,1.63,0.51
23.970132,-0.0293,-0.9902,0.0894,-0.37,0.00,-0.06,-87.52,1.63,0.51
23.999071,-0.0142,-0.9966,0.0708,-0.61,0.00,-0.18,-87.53,1.63,0.51
23.999071,-0.0239,-0.9995,0.0562,0.00,0.00,0.00,-87.53,1.63,0.51
