t,ax,ay,az,gx,gy,gz,wx,wy,wz
0.017745,0.0361,0.4443,0.8989,-3.42,4.33,-0.24,-1.46,0.78,0.00
0.017745,0.0371,0.4404,0.9023,1.10,3.17,0.24,-1.46,0.78,0.00
0.045927,0.0410,0.4390,0.9014,1.22,3.85,-0.06,-1.46,0.78,0.00
0.045927,0.0371,0.4463,0.8994,3.05,2.99,0.00,-1.46,0.78,0.00
0.076134,0.0396,0.4438,0.8945,1.34,2.56,-0.18,-1.46,0.78,0.00
0.076134,0.0410,0.4429,0.8965,0.92,2.93,-0.55,-1.46,0.78,0.00
0.136218,0.0361,0.4419,0.8984,1.28,4.09,-0.98,-1.46,0.78,0.00
0.136218,0.0356,0.4404,0.8975,3.23,5.68,-1.10,-1.46,0.78,0.00
0.165825,0.0283,0.4507,0.8955,1.46,4.33,-1.40,-1.46,0.78,0.00
0.165825,0.0298,0.4473,0.8945,0.18,1.16,-0.49,-1.46,0.78,0.00
0.227072,0.0322,0.4409,0.8955,-1.46,1.46,-0.61,-1.46,0.78,0.00
0.227072,0.0283,0.4380,0.9038,-1.28,1.65,-0.79,-1.46,0.78,0.00
0.256169,0.0356,0.4346,0.9038,-0.06,1.65,-1.71,-1.46,0.78,0.00
0.256169,0.0332,0.4385,0.8984,-0.67,2.38,-2.99,-1.46,0.78,0.00
0.304380,0.0269,0.4438,0.8945,0.67,3.48,-3.36,-1.46,0.78,0.00
0.304380,0.0210,0.4492,0.8945,0.67,4.76,-3.42,-1.46,0.78,0.00
0.347160,0.0229,0.4497,0.8911,0.67,4.88,-3.54,-1.46,0.78,0.00
0.347160,0.0229,0.4497,0.8843,1.59,4.70,-3.60,-1.46,0.78,0.00
0.377292,0.0161,0.4536,0.8857,0.55,4.39,-3.17,-1.46,0.78,0.00
0.377292,0.0073,0.4546,0.8901,-0.73,2.99,-2.32,-1.46,0.78,0.00
0.405823,0.0107,0.4512,0.8945,-2.87,1.40,-1.71,-1.46,0.78,0.00
0.405823,0.0137,0.4478,0.9023,-3.66,1.89,-1.53,-1.46,0.78,0.00
0.465963,0.0142,0.4434,0.9023,-3.05,1.77,-1.53,-1.46,0.78,0.00
0.465963,0.0107,0.4434,0.9058,-4.15,1.59,-1.89,-1.46,0.78,0.00
0.495819,0.0073,0.4409,0.9028,-2.81,0.37,-1.22,-1.46,0.78,0.00
0.495819,0.0117,0.4360,0.8989,-1.59,0.85,-1.28,-1.46,0.78,0.00
0.526140,0.0078,0.4390,0.8984,-1.34,1.04,-1.71,-1.46,0.78,0.00
0.526140,0.0039,0.4434,0.8984,-1.10,0.85,-1.71,-1.46,0.78,0.00
0.585911,0.0020,0.4463,0.8940,-1.53,0.73,-1.46,-1.46,0.78,0.00
0.585911,0.0039,0.4492,0.8965,-0.31,0.37,-0.85,-1.46,0.78,0.00
0.616921,0.0078,0.4429,0.8950,-0.73,0.61,-0.67,-1.46,0.78,0.00
0.616921,0.0059,0.4453,0.8975,-0.98,0.49,-0.24,-1.46,0.78,0.00
0.645821,0.0103,0.4414,0.8960,-1.22,0.00,0.12,-1.46,0.78,0.00
0.645821,0.0112,0.4385,0.9009,-1.65,0.37,-0.06,-1.46,0.78,0.00
0.706916,0.0171,0.4321,0.8979,-0.12,0.37,-0.55,-1.46,0.78,0.00
0.706916,0.0127,0.4331,0.9014,-1.22,0.18,-1.46,-1.46,0.78,0.00
0.735884,0.0054,0.4355,0.8994,-1.40,-0.06,-1.34,-1.46,0.78,0.00
0.735884,0.0093,0.4331,0.8984,-0.85,0.18,-1.22,-1.46,0.78,0.00
0.765919,0.0083,0.4326,0.9023,-1.46,0.55,-1.53,-1.46,0.78,0.00
0.765919,0.0063,0.4346,0.9019,-1.10,0.00,-1.28,-1.46,0.78,0.00
0.825947,0.0063,0.4346,0.9077,-1.34,0.06,-1.28,-1.46,0.78,0.00
0.825947,0.0049,0.4360,0.9067,-1.22,0.12,-1.40,-1.46,0.78,0.00
0.855905,0.0029,0.4370,0.9043,-1.10,0.55,-1.53,-1.46,0.78,0.00
0.855905,-0.0044,0.4438,0.9067,-1.65,0.43,-1.04,-1.46,0.78,0.00
0.885867,-0.0020,0.4424,0.9043,-1.53,-0.12,-0.12,-1.46,0.78,0.00
0.885867,0.0024,0.4414,0.9014,-2.62,0.00,0.00,-1.46,0.78,0.00
0.945916,0.0073,0.4355,0.8984,-2.81,0.24,0.00,-1.46,0.78,0.00
0.945916,0.0112,0.4282,0.8979,-3.97,0.67,-0.49,-1.46,0.78,0.00
0.976212,0.0122,0.4233,0.8999,-4.15,0.73,-1.10,-1.46,0.78,0.00
0.976212,0.0078,0.4224,0.9102,-3.85,0.18,-1.71,-1.46,0.78,0.00
1.005937,0.0112,0.4185,0.9111,-1.89,-1.34,-2.32,-1.46,0.78,0.00
1.005937,0.0107,0.4204,0.9150,-1.04,-1.59,-3.17,-1.46,0.78,0.00
1.065875,0.0000,0.4316,0.9180,-0.85,-1.22,-2.69,-1.46,0.78,0.00
1.065875,-0.0063,0.4370,0.9087,0.00,-1.65,-1.10,-1.46,0.78,0.00
1.095876,-0.0005,0.4331,0.9033,-0.73,-1.95,-0.06,-1.46,0.78,0.00
1.095876,0.0073,0.4258,0.9009,-0.12,-2.14,-0.31,-1.46,0.78,0.00
1.126965,0.0088,0.4253,0.9009,0.85,-1.04,-1.16,-1.46,0.78,0.00
1.126965,-0.0005,0.4341,0.9033,1.22,-0.73,-0.92,-1.46,0.78,0.00
1.185782,-0.0020,0.4385,0.9019,2.01,-0.31,0.43,-1.46,0.78,0.00
1.185782,0.0005,0.4395,0.9048,0.92,-0.67,1.34,-1.46,0.78,0.00
1.215929,0.0078,0.4321,0.9028,-0.55,-1.10,1.46,-1.46,0.78,0.00
1.215929,0.0107,0.4233,0.9009,-0.43,-0.61,0.98,-1.46,0.78,0.00
1.245900,0.0112,0.4224,0.9009,0.73,0.12,0.24,-1.46,0.78,0.00
1.245900,0.0078,0.4263,0.9062,1.04,0.43,0.79,-1.46,0.78,0.00
1.305864,0.0107,0.4272,0.9121,0.31,0.00,0.79,-1.46,0.78,0.00
1.305864,0.0151,0.4282,0.9126,0.31,-0.06,0.37,-1.46,0.78,0.00
1.335863,0.0117,0.4282,0.9062,0.37,0.24,0.00,-1.46,0.78,0.00
1.335863,0.0054,0.4282,0.9053,0.12,0.37,0.00,-1.46,0.78,0.00
1.365907,0.0054,0.4287,0.8960,0.55,0.31,0.24,-1.46,0.78,0.00
1.365907,0.0083,0.4297,0.8931,-0.24,0.79,0.18,-1.46,0.78,0.00
1.425849,0.0103,0.4292,0.8975,-1.16,0.43,0.00,-1.46,0.78,0.00
1.425849,0.0103,0.4282,0.9028,-1.59,0.55,-0.55,-1.46,0.78,0.00
1.455893,0.0059,0.4302,0.9033,-0.85,1.22,-0.55,-1.46,0.78,0.00
1.455893,-0.0005,0.4336,0.9014,0.61,1.65,0.37,-1.46,0.78,0.00
1.485882,0.0015,0.4326,0.9009,-0.55,0.92,0.92,-1.46,0.78,0.00
1.485882,0.0063,0.4263,0.9014,-1.53,0.98,0.55,-1.46,0.78,0.00
1.545834,0.0034,0.4292,0.9077,-1.34,2.08,0.24,-1.46,0.78,0.00
1.545834,0.0000,0.4336,0.9106,0.37,0.92,0.92,-1.46,0.78,0.00
1.576165,0.0093,0.4282,0.9102,-0.43,0.06,0.73,-1.46,0.78,0.00
1.576165,0.0073,0.4282,0.9131,-1.40,-0.24,0.31,-1.46,0.78,0.00
1.637097,0.0103,0.4229,0.9072,0.18,-0.43,0.12,-1.46,0.78,0.00
1.637097,0.0054,0.4233,0.9082,-0.49,0.06,-0.31,-1.46,0.78,0.00
1.665878,0.0098,0.4248,0.9043,1.40,-0.12,0.18,-1.46,0.78,0.00
1.665878,0.0156,0.4238,0.9038,0.92,0.06,-0.37,-1.46,0.78,0.00
1.695882,0.0107,0.4258,0.9058,0.98,-0.43,-1.16,-1.46,0.78,0.00
1.695882,0.0078,0.4282,0.9033,2.01,-0.43,-1.04,-1.46,0.78,0.00
1.755827,0.0000,0.4312,0.9048,1.40,0.00,-0.61,-1.46,0.78,0.00
1.755827,0.0000,0.4292,0.9067,2.62,-0.73,0.00,-1.46,0.78,0.00
1.785842,0.0015,0.4282,0.9053,0.73,-0.92,-0.49,-1.46,0.78,0.00
1.785842,-0.0024,0.4336,0.9116,0.98,-0.79,-0.37,-1.46,0.78,0.00
1.816477,-0.0005,0.4375,0.9072,2.08,-0.73,0.24,-1.46,0.78,0.00
1.816477,-0.0015,0.4355,0.9067,0.98,-0.43,0.37,-1.46,0.78,0.00
1.877582,0.0000,0.4336,0.9072,0.37,-0.73,0.43,-1.46,0.78,0.00
1.877582,0.0000,0.4321,0.9155,-1.04,-1.40,0.18,-1.46,0.78,0.00
1.906866,0.0015,0.4360,0.9189,-0.85,-2.81,0.98,-1.46,0.78,0.00
1.906866,0.0176,0.4331,0.9077,0.61,-2.44,1.40,-1.46,0.78,0.00
1.935805,0.0317,0.4336,0.8936,0.79,-1.28,0.85,-1.46,0.78,0.00
1.935805,0.0347,0.4321,0.8828,-0.79,-1.71,-0.06,-1.46,0.78,0.00
1.995879,0.0317,0.4229,0.8799,-1.89,-1.34,-0.67,-1.46,0.78,0.00
1.995879,0.0234,0.4155,0.8931,-1.77,-0.31,-1.28,-1.46,0.78,0.00
2.025815,0.0146,0.4102,0.9116,-1.59,0.00,-1.77,-1.46,0.78,0.00
2.025815,0.0146,0.4087,0.9277,-0.12,-0.55,-2.81,-1.46,0.78,0.00
2.056286,0.0107,0.4121,0.9419,-0.12,-1.40,-3.72,-1.46,0.78,0.00
2.056286,-0.0020,0.4238,0.9526,0.49,-2.75,-3.48,-1.46,0.78,0.00
2.115896,0.0020,0.4282,0.9321,3.97,-3.23,-2.38,-1.46,0.78,0.00
2.115896,0.0029,0.4375,0.9087,4.09,-3.54,-2.99,-1.46,0.78,0.00
2.145843,0.0000,0.4521,0.8828,3.23,-3.23,-2.75,-1.46,0.78,0.00
2.145843,-0.0088,0.4658,0.8677,1.83,-2.69,-1.46,-1.46,0.78,0.00
2.176125,-0.0054,0.4668,0.8618,1.10,-2.32,0.55,-1.46,0.78,0.00
2.176125,0.0063,0.4580,0.8633,-0.06,-1.46,1.59,-1.46,0.78,0.00
2.235913,0.0127,0.4497,0.8779,-1.53,-0.43,1.83,-1.46,0.78,0.00
2.235913,0.0181,0.4380,0.8931,-1.53,-0.24,2.26,-1.46,0.78,0.00
2.266098,0.0269,0.4238,0.9126,-1.65,-0.37,1.83,-1.46,0.78,0.00
2.266098,0.0303,0.4150,0.9292,-1.16,-0.67,1.10,-1.46,0.78,0.00
2.296025,0.0303,0.4141,0.9331,-0.24,-1.16,0.37,-1.46,0.78,0.00
2.296025,0.0278,0.4194,0.9336,-1.04,-2.69,-0.12,-1.46,0.78,0.00
2.356095,0.0244,0.4214,0.9473,-2.50,-4.58,-2.26,-1.48,0.73,63.42
2.356095,0.0352,0.4238,0.9580,-3.11,-6.35,-2.20,-1.55,0.61,63.35
2.386104,0.0332,0.4331,0.9375,1.04,-7.14,-1.65,-1.53,0.47,63.32
2.386104,0.0312,0.4414,0.9189,0.43,-8.79,-1.77,-1.46,0.31,63.29
2.415858,0.0308,0.4385,0.8970,0.00,-10.07,-1.46,-1.33,0.11,63.26
2.415858,0.0322,0.4321,0.8887,-1.34,-10.01,-1.77,-1.14,-0.10,63.25
2.476404,0.0298,0.4351,0.8828,-1.77,-9.28,-2.08,-0.89,-0.31,63.23
2.476404,0.0322,0.4341,0.8823,-1.77,-9.34,-2.26,-0.53,-0.52,63.20
2.506117,0.0366,0.4346,0.8784,-2.99,-9.09,-3.42,-0.08,-0.72,63.17
2.506117,0.0283,0.4365,0.8784,-2.93,-8.12,-4.09,0.47,-0.91,63.12
2.536069,0.0293,0.4351,0.8760,-2.50,-7.57,-4.21,1.14,-1.08,63.07
2.536069,0.0371,0.4253,0.8735,-3.54,-7.20,-5.25,1.91,-1.24,63.01
2.596082,0.0459,0.4131,0.8716,-4.88,-5.80,-6.77,2.74,-1.38,62.92
2.596082,0.0708,0.4146,0.8809,-9.03,-1.83,-9.03,3.60,-1.46,62.80
2.626062,0.0713,0.3804,0.8540,-4.82,-2.44,-11.54,4.52,-1.51,62.66
2.626062,0.0669,0.3745,0.8843,-18.92,5.43,-18.31,5.33,-1.46,62.39
2.656043,0.0225,0.4111,0.9565,-7.75,5.62,-15.32,6.14,-1.32,62.11
2.656043,-0.0010,0.4263,0.9712,-1.59,2.14,-11.84,7.12,-1.22,61.90
2.716053,0.0181,0.4390,0.9653,-1.16,-4.58,-8.42,8.14,-1.20,61.78
2.716053,0.0352,0.4268,0.9375,-1.53,-10.62,-8.54,9.14,-1.30,61.68
2.746061,0.0200,0.4380,0.9043,3.72,-11.23,-6.04,10.13,-1.46,61.58
2.746061,0.0225,0.4253,0.8862,-3.54,-8.61,-7.14,11.09,-1.58,61.51
2.776431,0.0303,0.4360,0.8828,-1.34,-7.20,-4.94,11.91,-1.65,61.44
2.776431,0.0312,0.4297,0.8765,-1.34,-6.53,-3.11,12.75,-1.72,61.41
2.836134,0.0254,0.4316,0.8950,-5.55,-5.37,-2.50,13.46,-1.77,61.40
2.836134,0.0269,0.4297,0.9087,-3.85,-4.64,-0.24,14.12,-1.80,61.42
2.866104,0.0400,0.4146,0.9077,-3.54,-4.76,0.31,14.73,-1.84,61.47
2.866104,0.0430,0.4028,0.9019,-4.27,-4.21,-0.18,15.29,-1.88,61.51
2.896095,0.0366,0.4019,0.8984,-2.93,-3.05,0.43,15.80,-1.91,61.55
2.896095,0.0425,0.3965,0.8872,-1.53,-1.89,1.46,16.29,-1.92,61.61
2.956092,0.0464,0.3896,0.8896,-3.91,-0.18,0.85,16.73,-1.91,61.67
2.956092,0.0439,0.3896,0.9053,-4.52,0.79,0.79,17.08,-1.87,61.72
2.986109,0.0469,0.3867,0.9209,-4.64,1.71,1.22,17.40,-1.83,61.78
2.986109,0.0503,0.3892,0.9355,-4.09,2.01,1.77,17.67,-1.78,61.85
3.046097,0.0591,0.3926,0.9346,-2.32,1.71,2.08,17.94,-1.74,61.92
3.046097,0.0708,0.3984,0.9165,-0.79,1.77,1.65,18.20,-1.71,62.00
3.076944,0.0679,0.4126,0.8989,-0.37,2.93,1.40,18.46,-1.67,62.07
3.076944,0.0635,0.4199,0.8984,0.12,4.09,2.20,18.71,-1.61,62.15
3.136112,0.0542,0.4141,0.9243,-0.55,4.27,2.50,18.94,-1.55,62.24
3.136112,0.0469,0.4072,0.9429,0.43,3.30,3.30,19.15,-1.52,62.34
3.166106,0.0532,0.3921,0.9292,2.01,3.48,3.72,-1.43,0.82,0.05
3.166106,0.0483,0.3867,0.9263,2.08,4.46,3.30,-1.38,0.91,0.12
3.196068,0.0454,0.3765,0.9326,1.65,4.76,2.69,-1.32,1.00,0.18
3.196068,0.0435,0.3711,0.9443,1.10,4.27,1.22,-1.24,1.09,0.22
3.226118,0.0352,0.3716,0.9604,0.85,4.03,-0.31,-1.10,1.15,0.23
3.226118,0.0210,0.3848,0.9639,3.85,3.48,-0.18,-0.86,1.21,0.22
3.286086,0.0190,0.3906,0.9458,5.00,2.99,0.31,-0.50,1.25,0.23
3.286086,0.0195,0.3979,0.9292,4.21,2.56,0.24,-0.04,1.27,0.24
3.316072,0.0210,0.4111,0.9102,3.11,2.14,0.92,0.48,1.28,0.25
3.316072,0.0278,0.4189,0.8843,3.97,3.05,2.08,1.10,1.28,0.29
3.346079,0.0308,0.4258,0.8574,4.64,5.00,3.05,1.85,1.30,0.36
3.346079,0.0254,0.4258,0.8315,4.15,6.65,3.91,2.69,1.35,0.44
3.406093,0.0215,0.4248,0.8218,2.69,8.61,4.52,3.60,1.41,0.55
3.406093,0.0161,0.4253,0.8364,-0.43,10.68,4.76,4.55,1.51,0.68
3.436051,0.0112,0.4253,0.8765,-3.23,12.02,4.88,5.48,1.64,0.81
3.436051,0.0117,0.4233,0.9272,-4.39,12.15,5.07,6.40,1.77,0.96
3.466200,0.0132,0.4189,0.9644,-3.66,10.56,5.37,7.33,1.88,1.11
3.466200,0.0146,0.4214,0.9854,-2.20,8.48,6.29,8.30,1.95,1.28
3.526213,0.0234,0.4106,0.9795,0.37,5.80,7.45,9.28,1.96,1.46
3.526213,0.0430,0.3984,0.9604,1.77,3.97,7.39,10.25,1.90,1.65
3.556027,0.0532,0.3901,0.9404,2.01,2.75,6.04,11.19,1.80,1.81
3.556027,0.0557,0.3940,0.9268,2.26,2.14,4.21,12.08,1.68,1.92
3.585871,0.0527,0.3945,0.9199,2.62,2.08,3.48,12.91,1.55,2.02
3.585871,0.0542,0.3940,0.9175,1.89,1.40,2.01,13.68,1.41,2.08
3.645782,0.0527,0.3921,0.9116,2.20,1.22,0.49,14.39,1.27,2.11
3.645782,0.0425,0.3936,0.9092,1.40,1.28,-1.22,15.04,1.14,2.10
3.676090,0.0288,0.3994,0.9092,1.40,1.04,-1.65,15.63,1.02,2.07
3.676090,0.0249,0.3955,0.8960,1.77,1.77,-2.32,16.18,0.92,2.03
3.706849,0.0103,0.3994,0.8926,1.10,2.99,-3.30,16.68,0.86,1.99
3.706849,-0.0088,0.4033,0.8916,-0.37,3.60,-3.23,17.12,0.83,1.94
3.765825,-0.0186,0.4019,0.9121,-1.22,2.93,-2.93,17.51,0.82,1.90
3.765825,-0.0244,0.4004,0.9365,-2.14,2.44,-2.93,17.84,0.82,1.86
3.795815,-0.0273,0.4072,0.9629,-1.53,1.65,-2.69,18.13,0.82,1.82
3.795815,-0.0234,0.4214,0.9707,0.06,0.00,-1.65,18.42,0.81,1.79
3.825871,-0.0068,0.4316,0.9448,2.56,-0.92,-0.55,18.72,0.78,1.76
3.825871,0.0073,0.4424,0.9116,3.05,-1.16,0.00,19.03,0.74,1.75
3.885886,0.0132,0.4468,0.8730,3.48,-0.73,0.67,19.34,0.70,1.75
3.885886,0.0156,0.4429,0.8423,2.14,0.49,1.10,19.63,0.67,1.77
3.915894,0.0151,0.4346,0.8379,-1.04,1.89,1.16,19.86,0.66,1.81
3.915894,0.0112,0.4209,0.8647,-4.21,2.99,1.10,20.02,0.68,1.85
3.945965,0.0137,0.4053,0.9033,-5.37,3.30,1.16,20.13,0.71,1.90
3.945965,0.0146,0.3916,0.9438,-6.29,3.17,0.55,20.19,0.75,1.94
4.005888,0.0200,0.3809,0.9600,-3.30,2.14,0.18,20.25,0.77,1.97
4.005888,0.0215,0.3706,0.9487,-0.43,2.75,-1.46,20.37,0.80,1.98
4.035943,0.0000,0.3799,0.9404,0.00,2.75,-2.87,20.48,0.85,1.95
4.035943,-0.0132,0.3901,0.9341,0.37,1.46,-2.50,20.60,0.88,1.92
4.065904,-0.0161,0.4023,0.9287,-0.06,0.85,-2.44,20.70,0.91,1.88
4.065904,-0.0166,0.4180,0.9229,0.55,0.61,-1.95,20.80,0.93,1.85
4.125931,-0.0186,0.4331,0.9165,0.24,0.31,-0.67,20.90,0.94,1.83
4.125931,-0.0063,0.4365,0.9111,-0.18,-0.67,0.98,20.98,0.92,1.83
4.156002,0.0059,0.4312,0.9062,-0.61,-1.22,1.46,21.05,0.89,1.85
4.156002,0.0063,0.4263,0.9033,-0.67,-0.18,1.95,21.12,0.86,1.88
4.185866,0.0034,0.4199,0.9072,-0.18,0.12,2.99,21.19,0.83,1.93
4.185866,0.0117,0.4048,0.9131,-0.85,-0.18,2.69,21.25,0.80,1.98
4.245896,0.0146,0.3940,0.9185,-1.16,-0.18,1.65,21.29,0.78,2.02
4.245896,0.0093,0.3867,0.9238,-0.55,0.37,0.73,21.34,0.77,2.04
4.276982,0.0049,0.3838,0.9316,0.12,-0.06,0.31,21.38,0.76,2.05
4.276982,0.0068,0.3818,0.9302,0.18,-0.79,-0.31,21.44,0.74,2.05
4.305805,0.0083,0.3857,0.9199,0.49,-0.43,-1.28,21.49,0.73,2.03
4.305805,0.0049,0.3945,0.9111,1.22,0.49,-2.14,21.55,0.74,2.00
4.366256,-0.0024,0.4067,0.9043,0.49,0.55,-2.62,21.60,0.76,1.96
4.366256,-0.0112,0.4175,0.9048,-0.49,0.43,-2.32,21.64,0.78,1.92
4.395908,-0.0112,0.4238,0.9116,-0.67,0.24,-1.40,21.66,0.80,1.88
4.395908,-0.0112,0.4253,0.9224,-0.67,-0.12,-0.55,21.68,0.80,1.87
4.455925,-0.0122,0.4258,0.9326,-0.49,-0.67,0.79,21.70,0.79,1.87
4.455925,-0.0029,0.4185,0.9321,0.24,-1.22,1.89,21.73,0.76,1.89
4.485847,0.0049,0.4077,0.9321,0.43,-1.71,1.95,21.77,0.72,1.92
4.485847,0.0112,0.3984,0.9268,0.37,-2.50,1.59,21.81,0.66,1.93
4.515921,0.0186,0.3926,0.9185,0.67,-2.69,1.04,21.84,0.60,1.94
4.515921,0.0195,0.3911,0.9175,0.61,-2.20,0.00,21.88,0.55,1.93
4.576254,0.0171,0.3960,0.9165,0.98,-2.08,-0.49,21.92,0.51,1.91
4.576254,0.0166,0.3979,0.9072,1.53,-1.59,-1.10,21.97,0.48,1.87
4.605881,0.0098,0.4058,0.9023,1.04,-1.04,-1.77,22.01,0.47,1.83
4.605881,0.0068,0.4087,0.8892,1.28,-0.85,-1.77,22.06,0.46,1.80
4.635896,0.0005,0.4121,0.8862,0.06,0.24,-2.01,22.08,0.46,1.76
4.635896,-0.0059,0.4155,0.8936,0.00,0.98,-1.34,22.10,0.48,1.74
4.695904,-0.0093,0.4180,0.9126,-1.34,1.22,-0.98,22.11,0.51,1.72
4.695904,-0.0137,0.4219,0.9302,-1.10,0.98,0.00,22.09,0.54,1.72
4.725914,-0.0142,0.4229,0.9375,0.00,0.79,1.28,22.10,0.55,1.74
4.725914,-0.0063,0.4199,0.9312,1.22,0.06,2.44,22.13,0.54,1.78
4.755921,0.0059,0.4116,0.9170,1.04,-0.37,2.50,22.17,0.52,1.83
4.755921,0.0117,0.4043,0.9038,0.79,0.06,2.01,22.20,0.50,1.87
4.815978,0.0088,0.4038,0.9043,0.00,0.55,2.01,22.23,0.49,1.91
4.815978,0.0146,0.3989,0.9077,0.06,0.61,2.01,22.24,0.48,1.96
4.845947,0.0190,0.3984,0.9155,-0.18,0.67,1.10,22.25,0.48,1.99
4.845947,0.0181,0.3984,0.9180,0.24,1.04,0.18,22.26,0.49,2.01
4.876148,0.0098,0.4077,0.9214,0.18,0.92,-0.31,22.28,0.52,2.02
4.876148,0.0088,0.4092,0.9150,0.61,0.43,-0.06,22.30,0.53,2.02
4.935928,0.0068,0.4126,0.9072,0.61,0.67,-0.12,22.32,0.54,2.02
4.935928,0.0073,0.4146,0.8984,0.73,0.92,-0.12,22.35,0.55,2.02
4.965865,0.0044,0.4180,0.8979,-0.49,1.16,-0.43,22.36,0.57,2.03
4.965865,0.0000,0.4189,0.9082,-0.73,1.10,0.24,22.35,0.59,2.03
4.995887,0.0049,0.4097,0.9160,-0.55,1.22,0.31,22.35,0.61,2.05
4.995887,0.0029,0.4033,0.9253,-0.67,1.40,-0.31,22.35,0.64,2.06
5.055911,-0.0059,0.4023,0.9414,0.00,1.40,-0.55,22.35,0.66,2.06
5.055911,-0.0122,0.4092,0.9458,2.32,1.40,0.00,22.38,0.69,2.07
5.085890,-0.0142,0.4170,0.9321,4.15,1.46,0.55,22.46,0.71,2.09
5.085890,-0.0176,0.4258,0.9126,3.97,1.40,1.10,22.55,0.74,2.11
5.115902,-0.0229,0.4346,0.8970,2.26,0.92,2.08,22.62,0.75,2.15
5.115902,-0.0195,0.4351,0.8975,1.40,0.31,3.66,22.66,0.74,2.21
5.176189,-0.0103,0.4258,0.9058,0.85,0.00,4.88,22.70,0.72,2.38
5.176189,0.0054,0.4136,0.9116,0.18,-0.18,5.19,22.72,0.69,2.57
5.205930,0.0181,0.4023,0.9170,-0.24,-0.61,4.76,22.72,0.66,2.75
5.205930,0.0317,0.3906,0.9160,0.00,-0.49,3.60,22.73,0.63,2.91
5.235892,0.0386,0.3872,0.9111,0.49,-0.06,1.77,22.74,0.61,3.04
5.235892,0.0327,0.3945,0.9067,0.73,0.06,0.67,22.75,0.62,3.15
5.295866,0.0366,0.3989,0.8975,0.31,0.00,-0.24,22.77,0.63,3.25
5.295866,0.0332,0.4023,0.8994,-0.37,0.18,-2.01,22.77,0.65,3.31
5.325950,0.0215,0.4102,0.9043,-0.31,0.49,-3.30,22.77,0.68,3.35
5.325950,0.0049,0.4204,0.9087,-0.43,0.67,-3.54,22.77,0.73,3.38
5.355923,0.0000,0.4214,0.9106,-0.06,0.18,-2.87,22.77,0.77,3.41
5.355923,-0.0073,0.4229,0.9146,-1.10,-0.12,-2.50,22.76,0.79,3.44
5.415913,-0.0039,0.4180,0.9131,-0.24,-0.55,-1.59,22.75,0.81,3.49
5.415913,-0.0015,0.4160,0.9185,-1.16,-0.18,-1.71,22.74,0.82,3.54
5.445871,-0.0015,0.4146,0.9243,-0.18,-0.43,-1.28,22.73,0.83,3.59
5.445871,-0.0029,0.4165,0.9263,-0.37,-0.73,-1.10,22.73,0.83,3.65
5.476250,-0.0010,0.4146,0.9214,0.49,-0.79,-0.49,22.74,0.83,3.71
5.476250,-0.0010,0.4136,0.9150,0.67,-0.73,-0.24,22.75,0.82,3.78
5.535932,0.0010,0.4121,0.9058,0.61,-0.55,-0.31,22.77,0.82,3.86
5.535932,0.0020,0.4116,0.9004,0.31,-0.31,-0.67,22.78,0.82,3.93
5.565936,0.0010,0.4146,0.8960,0.12,0.49,-0.79,22.79,0.83,4.00
5.565936,-0.0054,0.4189,0.9043,0.00,0.85,-0.18,22.80,0.85,4.08
5.595898,-0.0020,0.4165,0.9111,-0.12,0.92,0.06,22.80,0.87,4.17
5.595898,-0.0024,0.4180,0.9185,-0.55,0.92,-0.12,22.80,0.90,4.26
5.656333,-0.0039,0.4209,0.9180,0.18,0.98,0.06,22.80,0.92,4.35
5.656333,-0.0073,0.4243,0.9131,0.18,0.85,1.04,22.81,0.93,4.45
5.685945,0.0005,0.4194,0.9058,0.55,0.43,1.77,22.82,0.94,4.56
5.685945,0.0063,0.4146,0.9033,-0.18,0.43,1.46,22.82,0.93,4.69
5.715910,0.0093,0.4111,0.9043,-0.37,0.73,1.04,22.82,0.94,4.80
5.715910,0.0073,0.4126,0.9087,-0.49,0.92,0.79,22.82,0.95,4.90
5.776185,0.0127,0.4077,0.9053,0.79,1.28,0.67,22.82,0.97,5.00
5.776185,0.0054,0.4077,0.9180,-1.16,1.04,-0.31,22.82,0.99,5.10
5.806933,0.0039,0.4053,0.9209,-0.37,0.12,-0.31,22.81,1.01,5.17
5.806933,0.0039,0.4048,0.9243,-0.55,0.31,-1.10,22.80,1.02,5.24
5.865863,0.0024,0.4062,0.9189,0.85,0.37,-1.16,22.81,1.03,5.31
5.865863,-0.0010,0.4097,0.9067,0.43,0.37,-1.65,22.83,1.05,5.36
5.896270,-0.0098,0.4165,0.9082,0.00,0.55,-1.59,22.84,1.08,5.41
5.896270,-0.0137,0.4204,0.9087,0.18,0.55,-0.98,22.84,1.10,5.47
5.926258,-0.0151,0.4238,0.9131,-0.18,0.49,-0.67,22.84,1.12,5.54
5.926258,-0.0166,0.4229,0.9189,0.12,0.43,-0.24,22.84,1.13,5.61
5.986183,-0.0181,0.4263,0.9238,0.31,0.24,0.12,22.85,1.14,5.70
5.986183,-0.0117,0.4331,0.9180,0.85,-0.43,1.53,22.87,1.13,5.79
6.016286,-0.0024,0.4253,0.9053,0.98,-0.24,2.56,22.89,1.11,5.91
6.016286,0.0000,0.4185,0.9004,0.12,0.31,2.93,22.90,1.09,6.04
6.046294,0.0034,0.4126,0.8994,-0.18,0.37,3.36,22.91,1.07,6.18
6.046294,0.0034,0.4131,0.9072,-1.28,0.37,3.42,22.89,1.05,6.33
6.106135,0.0107,0.4077,0.9224,-0.61,0.00,3.48,22.87,1.02,6.47
6.106135,0.0166,0.4019,0.9312,-0.49,-0.18,2.26,22.86,1.00,6.61
6.136264,0.0166,0.4033,0.9331,0.79,-0.55,1.04,22.87,0.98,6.71
6.136264,0.0083,0.4102,0.9219,1.10,-0.98,0.18,22.89,0.96,6.80
6.166331,0.0093,0.4121,0.9092,1.10,-1.10,0.24,22.92,0.94,6.87
6.166331,0.0142,0.4116,0.9004,0.67,-1.22,0.00,22.93,0.91,6.95
6.226168,0.0176,0.4062,0.8999,0.00,-1.04,-0.61,22.94,0.90,7.01
6.226168,0.0132,0.4072,0.9053,0.00,-0.55,-1.46,22.94,0.89,7.07
6.256678,0.0098,0.4097,0.9077,0.43,0.00,-2.01,22.94,0.90,7.12
6.256678,0.0015,0.4180,0.9082,0.55,0.37,-2.08,22.95,0.92,7.16
6.286268,-0.0015,0.4229,0.9009,0.73,0.37,-1.53,22.97,0.94,7.22
6.286268,-0.0039,0.4233,0.8940,0.18,0.55,-1.59,22.98,0.96,7.27
6.346260,-0.0112,0.4233,0.8970,-0.55,0.79,-1.10,22.97,0.98,7.34
6.346260,-0.0103,0.4194,0.9058,-0.92,0.85,-0.61,22.96,1.01,7.41
6.376514,-0.0127,0.4189,0.9189,-1.59,0.85,-0.31,22.93,1.03,7.49
6.376514,-0.0103,0.4189,0.9331,-0.98,0.37,0.55,22.91,1.04,7.58
6.436299,-0.0024,0.4146,0.9370,-0.18,-0.49,1.10,22.90,1.03,7.68
6.436299,0.0068,0.4102,0.9307,0.49,-0.92,0.98,22.90,1.00,7.77
6.466294,0.0132,0.4077,0.9160,1.40,-0.79,0.31,22.92,0.98,7.86
6.466294,0.0107,0.4102,0.9023,1.28,-0.18,-0.12,22.95,0.97,7.93
6.496237,0.0054,0.4136,0.8979,0.55,-0.06,-0.12,22.97,0.96,8.01
6.496237,0.0073,0.4146,0.8984,0.12,-0.18,0.00,22.97,0.96,8.09
6.526169,0.0083,0.4141,0.9043,-0.18,0.31,-0.85,22.97,0.96,8.16
6.526169,0.0034,0.4175,0.9077,0.24,0.55,-1.10,22.97,0.98,8.22
6.586206,-0.0044,0.4209,0.9111,-0.12,0.61,-0.79,22.98,1.00,8.29
6.586206,-0.0034,0.4233,0.9116,0.00,0.00,0.24,22.97,1.01,8.37
6.616238,0.0020,0.4185,0.9102,-0.12,0.24,0.24,22.97,1.00,8.45
6.616238,0.0005,0.4194,0.9106,0.00,0.43,-0.12,22.97,1.01,8.53
6.646229,-0.0039,0.4233,0.9121,-0.06,0.24,0.12,22.97,1.02,8.61
6.646229,-0.0015,0.4219,0.9116,-0.06,-0.06,0.92,22.97,1.01,8.70
6.707126,0.0078,0.4111,0.9111,0.00,-0.31,0.67,22.97,0.99,8.79
6.707126,0.0063,0.4087,0.9111,-0.18,-0.06,-0.18,22.97,0.99,8.87
6.735984,0.0010,0.4102,0.9146,0.06,0.00,-0.18,22.97,0.99,8.94
6.735984,0.0010,0.4111,0.9136,0.12,-0.06,-0.24,22.97,0.99,9.01
6.791274,0.0024,0.4111,0.9092,0.18,-0.06,-0.67,22.97,0.99,9.08
6.791274,-0.0005,0.4150,0.9077,0.00,0.18,-0.98,22.97,0.99,9.14
6.825890,-0.0078,0.4204,0.9111,0.00,0.18,-0.43,22.97,1.01,9.21
6.825890,-0.0039,0.4194,0.9111,0.06,-0.06,0.00,22.97,1.01,9.28
6.855914,-0.0034,0.4204,0.9116,-0.06,0.06,-0.06,22.97,1.01,9.35
6.855914,-0.0039,0.4233,0.9097,0.18,0.00,0.12,22.98,1.01,9.43
6.886021,-0.0039,0.4263,0.9106,-0.12,-0.18,0.67,22.98,1.00,9.51
6.886021,0.0020,0.4199,0.9092,0.00,-0.43,1.10,22.98,0.98,9.60
6.946401,0.0059,0.4150,0.9116,-0.31,-0.24,0.73,22.98,0.97,9.68
6.946401,0.0068,0.4111,0.9141,-0.06,-0.12,0.31,22.97,0.96,9.76
6.976218,0.0063,0.4116,0.9141,0.18,-0.31,0.12,22.98,0.95,9.84
6.976218,0.0049,0.4126,0.9131,0.43,-0.55,0.18,22.98,0.94,9.90
7.005937,0.0093,0.4106,0.9077,0.43,-0.49,-0.06,22.99,0.93,9.97
7.005937,0.0083,0.4116,0.9053,0.00,-0.18,-0.67,23.00,0.92,10.03
7.066020,0.0059,0.4146,0.9038,0.06,0.00,-0.85,23.00,0.93,10.08
7.066020,0.0015,0.4170,0.9067,-0.12,0.24,-1.10,23.00,0.94,10.13
7.096070,-0.0049,0.4224,0.9116,0.00,0.06,-0.67,23.00,0.95,10.18
7.096070,-0.0044,0.4229,0.9106,-0.31,0.00,0.06,23.00,0.95,10.24
7.126009,0.0000,0.4189,0.9126,-0.24,0.00,0.31,22.99,0.94,10.31
7.126009,-0.0005,0.4189,0.9160,-0.06,0.18,0.31,22.99,0.94,10.38
7.186173,0.0020,0.4106,0.9146,0.67,0.37,0.43,23.01,0.94,10.46
7.186173,0.0015,0.4092,0.9106,0.18,0.06,0.00,23.01,0.94,10.53
7.216121,0.0000,0.4092,0.9102,-0.24,-0.06,-0.12,23.01,0.94,10.60
7.216121,0.0063,0.4106,0.9092,0.37,0.06,-0.37,23.02,0.94,10.66
7.276448,0.0049,0.4204,0.9126,0.43,0.43,-0.61,23.02,0.96,10.72
7.276448,0.0117,0.4219,0.9077,1.04,-0.12,-0.37,23.04,0.96,10.78
7.306091,0.0132,0.4214,0.9062,0.06,-0.18,-1.16,23.05,0.96,10.82
7.306091,0.0146,0.4180,0.8950,1.10,0.31,-1.10,23.07,0.97,10.87
7.336156,0.0098,0.4160,0.8945,-0.18,1.22,-1.71,23.08,0.99,10.92
7.336156,0.0039,0.4170,0.9014,0.00,0.98,-1.28,23.08,1.03,10.97
7.396274,0.0054,0.4131,0.9121,-0.98,1.16,-1.77,23.07,1.06,11.01
7.396274,-0.0010,0.4141,0.9268,-0.73,0.85,-2.14,23.05,1.09,11.05
7.425974,-0.0103,0.4146,0.9331,-0.18,0.12,-1.83,23.04,1.12,11.09
7.425974,-0.0103,0.4146,0.9258,0.92,0.00,-1.16,23.05,1.13,11.12
7.455970,-0.0063,0.4141,0.9058,1.65,0.18,-0.92,23.08,1.14,11.17
7.455970,-0.0039,0.4150,0.8901,0.67,0.61,-1.46,23.10,1.15,11.21
7.516179,-0.0068,0.4209,0.8848,-0.43,0.79,-1.71,23.11,1.18,11.25
7.516179,-0.0117,0.4253,0.8945,-1.28,1.28,-1.59,23.09,1.21,11.29
7.546097,-0.0127,0.4292,0.9106,-0.73,1.53,-0.79,23.07,1.25,11.35
7.546097,-0.0083,0.4272,0.9160,0.00,1.59,-0.43,23.06,1.28,11.41
7.576372,-0.0073,0.4258,0.9165,0.12,1.71,-0.37,23.07,1.31,11.48
7.576372,-0.0127,0.4258,0.9155,-0.43,1.04,0.06,23.07,1.34,11.55
7.636161,-0.0103,0.4233,0.9165,-0.49,0.31,0.79,23.05,1.35,11.62
7.636161,-0.0029,0.4180,0.9146,-0.18,0.61,0.98,23.05,1.35,11.71
7.666152,-0.0024,0.4194,0.9141,0.24,0.61,0.98,23.05,1.35,11.80
7.666152,0.0010,0.4150,0.9136,-0.18,0.00,0.79,23.06,1.35,11.88
7.696150,0.0010,0.4102,0.9150,-0.31,-0.18,0.12,23.05,1.34,11.95
7.696150,0.0000,0.4082,0.9131,0.18,-0.12,-0.18,23.05,1.33,12.01
7.756098,-0.0024,0.4111,0.9092,0.00,-0.18,-0.49,23.06,1.33,12.07
7.756098,-0.0010,0.4131,0.9072,-0.18,-0.31,-0.73,23.05,1.33,12.12
7.789069,0.0005,0.4126,0.9072,-0.37,-0.18,-1.28,23.05,1.33,12.16
7.789069,-0.0044,0.4175,0.9102,-0.24,-0.18,-1.22,23.04,1.35,12.19
7.815999,-0.0073,0.4189,0.9131,-0.18,-0.18,-0.98,23.04,1.35,12.24
7.815999,-0.0063,0.4194,0.9106,0.00,-0.12,-0.92,23.04,1.35,12.29
7.876622,-0.0103,0.4233,0.9058,0.00,0.00,-0.85,23.04,1.36,12.33
7.876622,-0.0146,0.4263,0.9009,-0.06,0.06,-0.37,23.04,1.36,12.39
7.906186,-0.0103,0.4248,0.8975,-0.61,0.00,0.24,23.03,1.36,12.45
7.906186,-0.0054,0.4199,0.9028,-1.34,0.18,0.18,23.02,1.36,12.52
7.936195,-0.0034,0.4165,0.9131,-1.10,0.00,0.24,22.99,1.36,12.60
7.936195,0.0000,0.4102,0.9199,-0.85,0.00,-0.06,22.97,1.36,12.66
7.996084,-0.0044,0.4116,0.9238,-0.37,0.00,0.00,22.96,1.36,12.72
7.996084,-0.0020,0.4077,0.9194,0.31,-0.24,0.00,22.96,1.35,12.79
8.026063,0.0000,0.4097,0.9136,0.24,-0.49,-0.67,22.97,1.35,12.84
8.026063,-0.0034,0.4136,0.9062,0.12,-0.18,-0.98,22.98,1.35,12.88
8.056022,-0.0088,0.4189,0.9014,-0.06,0.06,-0.67,22.98,1.35,12.93
8.056022,-0.0073,0.4185,0.9019,-0.31,0.24,-0.24,22.98,1.36,12.99
8.116089,-0.0054,0.4155,0.9067,-0.49,0.06,-0.37,22.97,1.36,13.05
8.116089,-0.0078,0.4180,0.9141,-0.67,0.12,-0.67,22.96,1.37,13.10
8.146034,-0.0107,0.4185,0.9165,-0.12,0.24,-0.49,22.94,1.37,13.15
8.146034,-0.0103,0.4189,0.9165,-0.06,0.06,-0.06,22.94,1.38,13.21
8.176305,-0.0083,0.4165,0.9150,0.00,-0.12,0.12,22.94,1.37,13.28
8.176305,-0.0044,0.4155,0.9087,0.12,-0.49,0.12,22.94,1.37,13.34
8.236124,-0.0024,0.4141,0.9033,-0.18,-0.06,-0.12,22.95,1.36,13.40
8.236124,-0.0049,0.4189,0.9038,-0.12,0.00,0.00,22.94,1.36,13.46
8.266015,-0.0039,0.4199,0.9043,-0.37,0.24,-0.06,22.94,1.36,13.52
8.266015,-0.0024,0.4204,0.9043,-0.24,0.31,0.00,22.93,1.37,13.58
8.296014,-0.0024,0.4170,0.9067,-0.49,0.12,0.00,22.92,1.37,13.65
8.296014,-0.0010,0.4097,0.9072,-0.67,0.24,-0.18,22.91,1.37,13.71
8.356070,-0.0054,0.4092,0.9165,-0.49,0.37,0.00,22.90,1.38,13.77
8.356070,0.0000,0.4038,0.9194,-0.12,0.18,0.00,22.90,1.38,13.84
8.385951,-0.0005,0.4053,0.9248,-0.67,0.06,-1.10,22.89,1.39,13.89
8.385951,-0.0063,0.4106,0.9253,0.24,-0.18,-1.16,22.88,1.40,13.93
8.415964,-0.0093,0.4150,0.9194,0.79,-0.37,-0.98,22.90,1.40,13.96
8.415964,-0.0137,0.4194,0.9102,0.79,-0.49,-0.61,22.91,1.40,14.01
8.476310,-0.0127,0.4209,0.8989,0.73,-0.31,-0.37,22.93,1.40,14.06
8.476310,-0.0146,0.4229,0.8984,-0.18,0.00,-0.31,22.93,1.40,14.11
8.505987,-0.0137,0.4233,0.8979,-0.18,0.06,0.31,22.93,1.40,14.17
8.505987,-0.0103,0.4189,0.9033,-0.61,0.31,0.24,22.92,1.39,14.17
8.536024,-0.0142,0.4214,0.9155,-0.73,0.55,0.79,22.98,1.29,14.14
8.536024,-0.0078,0.4160,0.9175,0.24,0.06,1.59,22.98,1.28,14.15
8.595921,-0.0005,0.4121,0.9160,-0.43,-0.06,0.79,22.98,1.27,14.17
8.595921,0.0005,0.4111,0.9092,0.31,0.12,0.43,22.97,1.26,14.18
8.625972,-0.0005,0.4126,0.9043,0.00,0.55,0.12,22.98,1.27,14.19
8.625972,-0.0039,0.4141,0.9053,0.00,0.24,0.24,22.98,1.28,14.20
8.685969,-0.0024,0.4102,0.9106,-0.61,0.06,0.12,22.97,1.28,14.21
8.685969,-0.0039,0.4097,0.9204,-0.61,0.00,-0.12,22.96,1.28,14.21
8.715981,-0.0039,0.4082,0.9233,-0.18,-0.31,-0.43,22.95,1.28,14.20
8.715981,-0.0054,0.4106,0.9199,0.18,-0.43,-0.55,22.95,1.27,14.19
8.745981,-0.0044,0.4131,0.9131,0.73,-0.67,-0.49,22.96,1.27,14.17
8.745981,-0.0059,0.4155,0.9072,0.43,-0.67,-0.73,22.97,1.26,14.16
8.805896,-0.0078,0.4175,0.9043,0.37,-0.61,-0.55,22.98,1.25,14.14
8.805896,-0.0107,0.4185,0.9048,-0.12,-0.12,-0.37,22.98,1.25,14.12
8.836010,-0.0122,0.4204,0.9082,-0.12,-0.12,0.00,22.98,1.25,14.12
8.836010,-0.0127,0.4199,0.9087,-0.31,-0.12,0.12,22.97,1.25,14.12
8.866063,-0.0107,0.4204,0.9087,-0.12,-0.06,0.67,22.97,1.24,14.13
8.866063,-0.0068,0.4189,0.9106,-0.24,0.00,0.79,22.96,1.24,14.14
8.925983,-0.0044,0.4136,0.9150,-0.12,-0.12,0.98,22.96,1.22,14.16
8.925983,-0.0044,0.4111,0.9180,0.00,-0.31,0.98,22.96,1.21,14.18
8.955907,0.0000,0.4087,0.9146,0.24,-0.31,0.67,22.96,1.20,14.19
8.955907,-0.0005,0.4102,0.9141,0.37,-0.37,0.37,22.97,1.19,14.19
8.985995,0.0015,0.4106,0.9087,0.67,-0.37,0.18,22.98,1.18,14.20
8.985995,0.0000,0.4121,0.9058,0.18,-0.18,-0.24,22.99,1.18,14.20
9.045935,-0.0049,0.4150,0.9058,0.00,-0.12,-0.24,22.99,1.18,14.19
9.045935,-0.0049,0.4155,0.9087,-0.18,-0.18,-0.12,22.99,1.17,14.18
9.076475,-0.0020,0.4150,0.9136,-0.06,-0.06,-0.12,22.98,1.17,14.18
9.076475,-0.0029,0.4131,0.9170,-0.18,-0.31,-0.37,22.98,1.17,14.18
9.107310,-0.0015,0.4116,0.9170,0.06,-0.67,-0.24,22.98,1.16,14.17
9.107310,-0.0010,0.4111,0.9146,0.37,-0.43,-0.37,22.98,1.15,14.16
9.166206,-0.0020,0.4131,0.9111,0.92,-0.06,-0.67,23.00,1.15,14.14
9.166206,-0.0103,0.4233,0.9043,0.49,-0.18,-0.61,23.01,1.16,14.13
9.197250,-0.0088,0.4248,0.9004,0.18,-0.18,0.00,23.02,1.16,14.12
9.197250,-0.0044,0.4243,0.9014,0.18,-0.18,0.43,23.02,1.15,14.12
9.226226,-0.0005,0.4146,0.9009,-0.18,0.12,0.06,23.03,1.15,14.13
9.226226,-0.0015,0.4131,0.9067,-0.49,0.24,-0.06,23.02,1.15,14.13
9.285949,-0.0015,0.4082,0.9165,-0.61,0.37,-0.24,23.01,1.16,14.13
9.285949,-0.0039,0.4106,0.9238,-0.06,0.24,-0.24,22.99,1.17,14.13
9.315950,-0.0039,0.4136,0.9248,0.24,0.00,-0.31,23.00,1.18,14.13
9.315950,-0.0039,0.4150,0.9175,0.73,-0.18,-0.24,23.01,1.18,14.12
9.346052,-0.0063,0.4175,0.9072,0.49,-0.43,-0.31,23.02,1.18,14.11
9.346052,-0.0063,0.4155,0.8994,0.37,-0.06,-0.18,23.03,1.17,14.11
9.405964,-0.0063,0.4185,0.9004,0.06,0.06,0.06,23.04,1.17,14.10
9.405964,-0.0005,0.4150,0.9028,-0.18,0.06,0.06,23.04,1.17,14.11
9.436485,-0.0024,0.4141,0.9097,-0.67,0.49,-0.55,23.03,1.18,14.10
9.436485,-0.0083,0.4175,0.9150,0.00,0.55,-0.24,23.02,1.19,14.10
9.466037,-0.0063,0.4175,0.9165,0.06,0.18,-0.06,23.02,1.20,14.10
9.466037,-0.0059,0.4180,0.9136,0.18,0.00,0.06,23.02,1.20,14.10
9.526443,-0.0015,0.4175,0.9048,0.31,0.18,0.00,23.03,1.20,14.11
9.526443,-0.0020,0.4194,0.9048,-0.31,0.31,0.00,23.03,1.21,14.11
9.555965,-0.0020,0.4160,0.9048,-0.24,0.24,0.00,23.02,1.21,14.11
9.555965,-0.0024,0.4141,0.9131,-0.43,0.24,-0.12,23.02,1.21,14.11
9.585933,-0.0044,0.4131,0.9194,-0.06,0.12,-0.12,23.04,1.15,14.05
9.585933,-0.0034,0.4106,0.9185,0.12,-0.06,-0.37,23.04,1.15,14.04
9.646083,-0.0054,0.4136,0.9155,0.12,-0.06,-0.55,23.04,1.14,14.04
9.646083,-0.0063,0.4155,0.9116,0.37,-0.18,-0.37,23.03,1.14,14.03
9.676257,-0.0049,0.4141,0.9106,0.24,-0.37,-0.49,23.03,1.14,14.03
9.676257,-0.0059,0.4150,0.9097,0.31,-0.18,-0.55,23.03,1.14,14.02
9.705948,-0.0078,0.4180,0.9082,0.24,0.00,-0.61,23.03,1.14,14.02
9.705948,-0.0088,0.4194,0.9077,0.06,0.00,-0.24,23.03,1.14,14.02
9.766191,-0.0098,0.4219,0.9077,0.18,0.00,0.12,23.04,1.14,14.02
9.766191,-0.0078,0.4185,0.9067,0.06,0.24,0.00,23.04,1.14,14.02
9.796152,-0.0073,0.4189,0.9082,0.06,0.18,0.12,23.04,1.14,14.02
9.796152,-0.0083,0.4185,0.9097,-0.12,0.18,0.31,23.04,1.14,14.02
9.825984,-0.0020,0.4180,0.9121,0.00,0.24,0.61,23.04,1.15,14.02
9.825984,0.0005,0.4150,0.9146,0.00,0.24,0.37,23.04,1.15,14.02
9.886060,-0.0029,0.4155,0.9136,0.00,0.37,0.00,23.05,1.14,14.02
9.886060,-0.0044,0.4185,0.9106,0.43,0.00,0.43,23.05,1.14,14.02
9.916059,-0.0005,0.4141,0.9077,-0.06,0.06,0.24,23.05,1.14,14.01
9.916059,-0.0044,0.4185,0.9082,-0.12,0.31,0.24,23.05,1.14,14.01
9.976480,-0.0049,0.4160,0.9077,0.18,0.43,0.43,23.05,1.14,14.01
9.976480,-0.0034,0.4150,0.9087,-0.06,0.61,0.18,23.05,1.14,14.01
10.005971,-0.0054,0.4136,0.9111,-0.12,0.37,0.06,23.05,1.14,14.01
10.005971,-0.0034,0.4102,0.9087,-0.18,0.43,-0.18,23.05,1.14,14.01
10.035958,-0.0034,0.4111,0.9106,-0.24,0.61,-0.37,23.05,1.13,14.01
10.035958,-0.0059,0.4160,0.9131,-0.06,0.67,-0.37,23.05,1.13,14.01
10.096004,-0.0029,0.4180,0.9136,0.18,0.67,-0.43,23.05,1.13,14.01
10.096004,-0.0034,0.4219,0.9102,0.31,0.55,-0.49,23.05,1.13,14.01
10.125979,-0.0029,0.4204,0.9038,0.24,0.67,-0.55,23.05,1.13,14.01
10.125979,-0.0098,0.4224,0.9033,-0.31,0.92,-0.43,23.05,1.13,14.01
10.156008,-0.0059,0.4189,0.9028,0.00,0.98,0.24,23.05,1.13,14.01
10.156008,-0.0044,0.4160,0.9097,-0.92,1.16,0.12,23.06,1.13,14.01
10.215982,-0.0044,0.4141,0.9175,-0.31,0.92,0.00,23.06,1.13,14.01
10.215982,-0.0078,0.4116,0.9194,-0.37,0.98,-0.55,23.06,1.13,14.01
10.246017,-0.0122,0.4131,0.9204,-0.06,0.61,-0.49,23.06,1.13,14.01
10.246017,-0.0117,0.4106,0.9155,0.24,0.37,-0.37,23.06,1.13,14.00
10.276301,-0.0127,0.4126,0.9111,0.12,0.49,-0.43,23.05,1.13,14.00
10.276301,-0.0127,0.4150,0.9072,0.43,0.49,-0.43,23.05,1.13,14.00
10.335992,-0.0156,0.4189,0.9077,-0.12,0.37,-0.43,23.05,1.14,14.00
10.335992,-0.0151,0.4194,0.9092,-0.18,0.31,-0.31,23.05,1.14,14.00
10.366468,-0.0142,0.4204,0.9111,-0.06,0.43,-0.24,23.05,1.14,14.00
10.366468,-0.0146,0.4224,0.9126,0.00,0.37,0.00,23.05,1.15,14.00
10.395998,-0.0132,0.4238,0.9116,0.43,0.00,0.61,23.06,1.15,13.99
10.395998,-0.0059,0.4194,0.9058,0.06,0.00,0.73,23.06,1.15,13.99
10.455996,-0.0005,0.4150,0.9048,-0.24,0.24,0.18,23.07,1.15,13.99
10.455996,-0.0024,0.4131,0.9082,-0.43,0.31,-0.12,23.07,1.15,13.99
10.486066,-0.0039,0.4126,0.9136,-0.43,0.31,-0.31,23.07,1.15,13.99
10.486066,-0.0063,0.4116,0.9219,0.00,0.00,-0.18,23.07,1.15,13.99
10.515992,-0.0044,0.4082,0.9185,0.31,-0.31,-0.61,23.07,1.15,13.99
10.515992,-0.0073,0.4106,0.9150,0.24,-0.43,-1.28,23.06,1.15,13.99
# luecke 10.593820-24.330570
24.348354,-0.0225,0.4043,0.9048,-0.24,0.37,-0.24,-1.46,0.78,0.00
24.348354,-0.0229,0.4067,0.9097,-0.79,0.55,-0.49,-1.46,0.78,0.00
24.376579,-0.0239,0.4097,0.9175,-0.61,0.55,-0.61,-1.46,0.78,0.00
24.376579,-0.0244,0.4106,0.9219,-0.18,0.43,-0.31,-1.46,0.78,0.00
24.406622,-0.0269,0.4082,0.9219,0.00,0.12,-0.12,-1.46,0.78,0.00
24.406622,-0.0273,0.4097,0.9194,0.37,-0.18,0.12,-1.46,0.78,0.00
24.466838,-0.0244,0.4102,0.9126,0.37,-0.24,0.18,-1.46,0.78,0.00
24.466838,-0.0249,0.4111,0.9058,0.43,0.00,0.31,-1.46,0.78,0.00
24.496718,-0.0244,0.4097,0.9053,0.00,0.12,0.31,-1.46,0.78,0.00
24.496718,-0.0225,0.4077,0.9092,-0.18,0.00,0.12,-1.46,0.78,0.00
24.526613,-0.0229,0.4082,0.9121,-0.18,0.12,0.00,-1.46,0.78,0.00
24.526613,-0.0220,0.4092,0.9121,0.12,0.49,0.06,-1.46,0.78,0.00
24.586689,-0.0195,0.4067,0.9102,0.18,0.43,0.00,-1.46,0.78,0.00
24.586689,-0.0190,0.4038,0.9111,-0.31,0.18,-0.24,-1.46,0.78,0.00
24.618186,-0.0205,0.4038,0.9126,-0.18,0.49,-0.55,-1.46,0.78,0.00
24.618186,-0.0254,0.4058,0.9189,-0.06,0.43,-0.49,-1.46,0.78,0.00
24.646558,-0.0264,0.4062,0.9229,0.24,0.12,-0.49,-1.46,0.78,0.00
24.646558,-0.0312,0.4106,0.9209,0.67,0.12,-0.43,-1.46,0.78,0.00
24.706393,-0.0327,0.4131,0.9165,0.92,-0.12,-0.06,-1.46,0.78,0.00
24.706393,-0.0308,0.4136,0.9106,0.55,-0.37,0.31,-1.46,0.78,0.00
24.736493,-0.0264,0.4116,0.9087,0.49,-0.31,0.61,-1.46,0.78,0.00
24.736493,-0.0234,0.4102,0.9131,0.37,-0.12,0.49,-1.46,0.78,0.00
24.767512,-0.0244,0.4111,0.9146,0.61,-0.31,0.24,-1.46,0.78,0.00
24.767512,-0.0244,0.4131,0.9097,0.79,-0.37,0.31,-1.46,0.78,0.00
24.826691,-0.0239,0.4136,0.9048,0.37,-0.18,0.49,-1.46,0.78,0.00
24.826691,-0.0186,0.4106,0.9009,0.24,-0.06,0.67,-1.46,0.78,0.00
24.886464,-0.0166,0.4072,0.9004,-0.31,0.24,0.12,-1.46,0.78,0.00
24.886464,-0.0151,0.4053,0.9033,-0.37,0.49,-0.18,-1.46,0.78,0.00
24.887915,-0.0176,0.4048,0.9092,-0.98,0.43,-0.43,-1.46,0.78,0.00
24.887915,-0.0142,0.4014,0.9121,-0.67,0.49,-0.73,22.67,2.13,65.98
24.946479,-0.0151,0.4023,0.9155,-0.67,0.79,-1.53,22.66,2.14,65.98
24.946479,-0.0205,0.4058,0.9194,-0.37,0.43,-1.71,22.36,1.89,66.50
24.977350,-0.0215,0.4062,0.9185,-0.06,0.18,-2.01,22.36,1.92,66.67
24.977350,-0.0283,0.4111,0.9146,0.06,0.49,-2.14,22.36,1.94,66.64
25.006247,-0.0361,0.4165,0.9106,0.12,0.49,-1.53,22.37,1.97,66.61
25.006247,-0.0361,0.4180,0.9038,-0.12,0.43,-0.73,22.37,1.99,66.59
25.066330,-0.0342,0.4175,0.9072,-0.67,0.49,-0.55,22.36,2.01,66.59
25.066330,-0.0347,0.4146,0.9136,-0.61,0.49,-0.31,22.35,2.02,66.58
25.096293,-0.0347,0.4131,0.9136,0.00,0.55,0.06,22.34,2.03,66.58
25.096293,-0.0298,0.4072,0.9106,0.61,0.92,0.24,22.35,2.04,66.60
25.126318,-0.0308,0.4062,0.9131,-0.49,0.67,-0.24,22.35,2.06,66.60
25.126318,-0.0322,0.4082,0.9136,-0.49,0.37,0.00,22.34,2.08,66.60
25.186304,-0.0273,0.4067,0.9146,-0.43,0.67,-0.06,22.34,2.09,66.62
25.186304,-0.0288,0.4102,0.9087,-0.06,0.61,-0.06,22.34,2.11,66.62
25.216243,-0.0269,0.4102,0.9033,-0.55,0.73,0.06,22.34,2.13,66.63
25.216243,-0.0254,0.4067,0.9087,-0.98,0.55,0.00,22.32,2.14,66.64
25.246308,-0.0244,0.4043,0.9170,-1.04,0.55,-0.24,22.31,2.16,66.64
25.246308,-0.0273,0.4053,0.9248,-0.55,0.49,-0.37,22.30,2.18,66.64
25.306402,-0.0288,0.4062,0.9282,0.00,0.12,-0.24,22.29,2.19,66.64
25.306402,-0.0254,0.4053,0.9233,0.49,-0.12,-0.43,22.31,2.20,66.63
25.336408,-0.0273,0.4087,0.9165,0.37,-0.24,-0.85,22.32,2.21,66.62
25.336408,-0.0327,0.4116,0.9121,0.37,-0.43,-0.61,22.33,2.21,66.61
25.366340,-0.0327,0.4102,0.9058,0.06,-0.37,-0.31,22.35,2.21,66.60
25.366340,-0.0352,0.4097,0.9043,-0.18,0.12,-0.43,22.35,2.22,66.60
25.456555,-0.0391,0.4121,0.9087,-0.31,0.18,0.12,22.35,2.24,66.60
25.456555,-0.0332,0.4067,0.9146,-0.67,-0.06,0.43,22.35,2.24,66.61
25.457466,-0.0288,0.4033,0.9194,-0.61,-0.18,0.31,22.35,2.25,66.62
25.457466,-0.0259,0.4033,0.9199,0.00,0.00,0.06,22.35,2.25,66.63
25.486313,-0.0269,0.4067,0.9180,0.49,0.00,-0.24,22.36,2.26,66.63
25.486313,-0.0317,0.4131,0.9126,0.55,0.12,-0.31,22.38,2.27,66.63
25.546407,-0.0356,0.4180,0.9082,0.73,0.18,0.31,22.41,2.29,66.63
25.546407,-0.0322,0.4155,0.9082,-0.06,-0.12,0.67,22.42,2.29,66.65
25.576378,-0.0273,0.4111,0.9102,-0.37,-0.12,0.79,22.42,2.29,66.67
25.576378,-0.0234,0.4072,0.9131,-0.18,0.12,0.73,22.43,2.30,66.69
25.657275,-0.0249,0.4048,0.9175,-0.18,0.12,0.73,22.43,2.30,66.71
25.657275,-0.0210,0.4004,0.9194,0.18,-0.12,0.37,22.45,2.30,66.73
25.673909,-0.0225,0.4009,0.9194,0.31,-0.06,-0.24,22.46,2.31,66.73
25.673909,-0.0259,0.4023,0.9146,0.49,-0.12,-0.43,22.47,2.31,66.72
25.697546,-0.0283,0.4062,0.9106,0.24,-0.12,-0.55,22.48,2.32,66.71
25.697546,-0.0293,0.4072,0.9077,0.31,-0.18,-0.37,22.49,2.33,66.71
25.756706,-0.0254,0.4062,0.9048,0.00,0.12,-0.85,22.51,2.34,66.70
25.756706,-0.0288,0.4106,0.9062,-0.31,0.06,-0.92,22.51,2.36,66.69
25.786321,-0.0288,0.4111,0.9106,-0.61,0.06,-0.92,22.51,2.37,66.68
25.786321,-0.0308,0.4121,0.9180,-0.49,0.06,-0.73,22.50,2.38,66.66
25.816319,-0.0332,0.4126,0.9204,-0.06,0.00,-0.37,22.50,2.40,66.65
25.816319,-0.0332,0.4131,0.9165,0.18,-0.12,0.06,22.51,2.40,66.65
25.877405,-0.0264,0.4077,0.9092,0.06,-0.12,0.00,22.52,2.40,66.66
25.877405,-0.0249,0.4062,0.9043,-0.06,0.12,-0.31,22.52,2.41,66.65
25.907361,-0.0269,0.4067,0.9067,-0.24,0.24,-0.61,22.52,2.42,66.65
25.907361,-0.0308,0.4067,0.9126,-0.67,0.18,-0.49,22.52,2.43,66.64
25.936297,-0.0308,0.4058,0.9194,-0.49,0.00,-0.37,22.51,2.44,66.64
25.936297,-0.0303,0.4062,0.9185,-0.18,0.00,-0.43,22.51,2.45,66.63
25.996802,-0.0308,0.4082,0.9146,0.00,-0.12,-0.43,22.51,2.46,66.63
25.996802,-0.0342,0.4097,0.9097,0.12,0.00,-0.06,22.52,2.46,66.62
26.026387,-0.0312,0.4082,0.9082,0.00,0.00,0.06,22.52,2.46,66.63
26.026387,-0.0317,0.4097,0.9111,-0.37,0.06,0.00,22.52,2.46,66.63
26.056390,-0.0327,0.4097,0.9160,-0.43,0.12,0.00,22.52,2.47,66.63
26.056390,-0.0332,0.4082,0.9194,0.00,-0.06,0.31,22.52,2.47,66.64
26.116364,-0.0293,0.4058,0.9185,0.18,-0.18,0.18,22.52,2.47,66.64
26.116364,-0.0332,0.4102,0.9155,0.24,-0.18,0.49,22.53,2.47,66.65
26.146327,-0.0288,0.4092,0.9092,0.37,-0.37,0.85,22.54,2.46,66.67
26.146327,-0.0259,0.4077,0.9077,-0.18,-0.31,0.49,22.54,2.44,66.68
26.176364,-0.0259,0.4087,0.9072,0.18,0.00,0.43,22.55,2.44,66.68
26.176364,-0.0264,0.4077,0.9121,-0.06,0.12,0.37,22.55,2.44,66.69
26.236346,-0.0254,0.4062,0.9146,-0.12,-0.06,0.24,22.55,2.44,66.70
26.236346,-0.0249,0.4062,0.9175,0.00,0.00,0.12,22.55,2.44,66.70
26.266288,-0.0249,0.4058,0.9189,0.06,-0.12,0.06,22.55,2.44,66.71
26.266288,-0.0244,0.4033,0.9165,0.06,-0.49,-0.18,22.56,2.43,66.70
26.297454,-0.0254,0.4043,0.9126,0.18,-0.37,-0.43,22.57,2.43,66.69
26.297454,-0.0283,0.4087,0.9077,0.49,0.18,-0.61,22.58,2.43,66.69
26.357915,-0.0327,0.4106,0.9102,0.24,0.06,-0.24,22.58,2.44,66.68
26.357915,-0.0327,0.4116,0.9131,-0.37,-0.37,0.00,22.58,2.44,66.68
26.387424,-0.0269,0.4082,0.9121,0.18,-0.18,0.06,22.58,2.43,66.68
26.387424,-0.0273,0.4082,0.9126,-0.06,0.00,-0.12,22.59,2.43,66.68
26.416348,-0.0264,0.4082,0.9092,0.24,0.06,-0.12,22.59,2.43,66.68
26.416348,-0.0278,0.4106,0.9097,0.18,0.24,-0.18,22.60,2.44,66.67
26.476371,-0.0269,0.4087,0.9106,0.06,0.24,-0.12,22.60,2.45,66.68
26.476371,-0.0254,0.4087,0.9106,0.06,0.37,-0.18,22.60,2.46,66.68
26.506380,-0.0269,0.4092,0.9126,0.00,0.43,-0.18,22.61,2.47,66.68
26.506380,-0.0259,0.4062,0.9146,0.06,0.49,-0.18,22.61,2.48,66.68
26.537312,-0.0273,0.4077,0.9165,0.00,0.31,-0.31,22.61,2.49,66.68
26.537312,-0.0269,0.4062,0.9155,0.12,0.18,-0.37,22.62,2.49,66.67
26.596262,-0.0273,0.4077,0.9155,0.06,0.00,-0.49,22.65,2.50,66.74
26.596262,-0.0264,0.4077,0.9082,0.24,0.18,-0.43,22.65,2.50,66.79
26.626304,-0.0332,0.4116,0.9102,-0.18,0.55,-0.18,22.65,2.50,66.83
26.626304,-0.0293,0.4077,0.9082,0.61,0.49,0.18,22.65,2.50,66.87
26.656738,-0.0278,0.4062,0.9082,-0.12,0.67,-0.55,22.65,2.50,66.90
26.656738,-0.0332,0.4087,0.9097,0.06,0.49,-0.67,22.65,2.50,66.93
26.716218,-0.0322,0.4097,0.9102,-0.61,0.24,-0.43,22.65,2.50,66.96
26.716218,-0.0288,0.4082,0.9224,-0.67,0.06,-0.37,22.65,2.50,66.99
26.746334,-0.0249,0.4077,0.9258,0.37,0.06,-0.43,22.65,2.50,67.01
26.746334,-0.0215,0.4102,0.9204,0.73,-0.24,-0.55,22.65,2.50,67.04
26.776261,-0.0234,0.4141,0.9131,0.43,-0.73,-0.67,22.65,2.49,67.06
26.776261,-0.0215,0.4155,0.9053,0.61,-0.55,-0.31,22.65,2.49,67.08
26.836369,-0.0249,0.4150,0.9072,0.06,-0.24,-0.31,22.65,2.49,67.09
26.836369,-0.0259,0.4072,0.9111,-0.12,-0.61,-0.24,22.66,2.48,67.12
26.866279,-0.0308,0.4019,0.9170,-0.73,-0.79,-0.85,22.66,2.48,67.13
26.866279,-0.0366,0.3975,0.9243,-0.24,-0.85,-0.79,22.66,2.48,67.14
26.896265,-0.0410,0.3960,0.9243,0.24,-1.04,-0.79,22.65,2.48,67.16
26.896265,-0.0391,0.3979,0.9194,0.55,-1.10,-1.04,22.64,2.49,67.17
26.956255,-0.0376,0.4038,0.9102,0.73,-1.16,-1.40,22.64,2.49,67.19
26.956255,-0.0381,0.4106,0.8965,0.61,-0.67,-1.40,22.64,2.49,67.20
26.986288,-0.0391,0.4185,0.8872,0.43,-0.12,-1.10,22.64,2.50,67.21
26.986288,-0.0396,0.4224,0.8867,-0.31,0.61,-0.73,22.64,2.50,67.23
27.046306,-0.0415,0.4268,0.8999,-1.34,0.79,-0.18,22.65,2.51,67.24
27.046306,-0.0376,0.4282,0.9131,-1.53,0.67,0.67,22.66,2.52,67.25
27.076259,-0.0312,0.4243,0.9268,-1.22,0.24,1.16,22.68,2.52,67.26
27.076259,-0.0249,0.4185,0.9307,-0.49,-0.37,1.89,22.66,2.51,67.27
27.107381,-0.0146,0.4072,0.9224,0.00,-0.67,1.89,22.66,2.48,67.31
27.107381,-0.0117,0.3979,0.9126,0.31,-0.55,1.10,22.66,2.46,67.33
27.166290,-0.0166,0.3950,0.9102,-0.18,-0.61,0.37,22.66,2.44,67.34
27.166290,-0.0190,0.3936,0.9160,-0.37,-0.67,-0.18,22.66,2.43,67.34
27.196330,-0.0244,0.3975,0.9229,-0.31,-0.92,-0.67,22.65,2.42,67.32
27.196330,-0.0278,0.4019,0.9263,0.12,-1.34,-1.16,22.65,2.41,67.29
27.226291,-0.0356,0.4087,0.9194,0.61,-1.59,-1.10,22.65,2.39,67.26
27.226291,-0.0347,0.4131,0.9082,0.61,-1.71,-0.67,22.66,2.37,67.23
27.286264,-0.0361,0.4155,0.9038,0.00,-1.65,-0.43,22.68,2.34,67.20
27.286264,-0.0381,0.4175,0.9014,0.00,-1.28,0.06,22.67,2.31,67.19
27.316301,-0.0371,0.4189,0.9019,0.00,-0.79,0.49,22.67,2.29,67.19
27.316301,-0.0366,0.4214,0.9019,-0.37,-0.61,1.16,22.66,2.27,67.20
27.347305,-0.0288,0.4165,0.9048,-0.98,-0.85,1.77,22.65,2.25,67.22
27.347305,-0.0176,0.4087,0.9058,-1.40,-0.85,1.89,22.63,2.21,67.25
27.406302,-0.0078,0.3999,0.9038,-0.73,-0.31,1.53,22.60,2.19,67.27
27.406302,-0.0039,0.3940,0.9043,-1.10,0.12,0.37,22.59,2.18,67.29
27.436317,-0.0044,0.3950,0.9106,-1.34,0.24,-0.49,22.56,2.18,67.29
27.436317,-0.0083,0.3975,0.9199,-1.22,0.49,-1.16,22.54,2.20,67.27
27.466389,-0.0127,0.4028,0.9253,-0.85,0.37,-1.34,22.52,2.22,67.26
27.466389,-0.0161,0.4048,0.9243,-0.49,0.06,-1.34,22.50,2.24,67.23
27.526285,-0.0205,0.4028,0.9214,-0.18,0.00,-1.53,22.49,2.25,67.21
27.526285,-0.0273,0.4033,0.9233,-0.37,-0.31,-1.65,22.48,2.26,67.18
27.556376,-0.0327,0.4048,0.9243,-0.06,-0.55,-1.34,22.48,2.26,67.14
27.556376,-0.0361,0.4062,0.9214,0.00,-0.43,-0.98,22.48,2.26,67.12
27.586631,-0.0405,0.4111,0.9131,0.43,-0.43,-0.24,22.48,2.26,67.10
27.586631,-0.0366,0.4131,0.9023,0.12,-0.18,0.12,22.49,2.25,67.10
27.648188,-0.0337,0.4146,0.8984,-0.06,0.12,0.49,22.49,2.25,67.10
27.648188,-0.0303,0.4141,0.8989,-0.49,0.55,0.79,22.48,2.25,67.12
27.677086,-0.0283,0.4116,0.9043,-0.98,0.67,1.04,22.47,2.25,67.14
27.677086,-0.0215,0.4077,0.9102,-0.98,0.73,1.16,22.45,2.26,67.17
27.708485,-0.0190,0.4048,0.9175,-1.16,0.85,1.04,22.43,2.26,67.20
27.708485,-0.0146,0.4014,0.9160,-0.06,1.16,0.98,22.42,2.27,67.23
27.796666,-0.0122,0.4009,0.9150,-0.31,0.92,0.55,22.41,2.29,67.25
27.796666,-0.0137,0.3975,0.9189,-0.73,0.49,0.00,22.40,2.30,67.26
27.798705,-0.0200,0.4009,0.9199,-0.43,0.37,-0.12,22.39,2.31,67.26
27.798705,-0.0225,0.4014,0.9185,-0.12,0.12,-0.06,22.38,2.31,67.26
27.826662,-0.0264,0.4048,0.9150,-0.61,0.12,-0.18,22.38,2.32,67.26
27.826662,-0.0601,0.4238,0.9194,-0.79,0.73,2.26,22.36,2.32,67.28
27.887666,-0.0884,0.4473,0.8794,2.01,0.18,8.67,22.37,2.29,67.38
27.887666,-0.0894,0.4595,0.8130,2.32,1.89,13.98,22.42,2.21,67.60
27.917445,-0.0669,0.4502,0.8350,4.70,4.82,18.86,22.49,2.15,67.96
27.917445,-0.0542,0.4102,0.8237,-11.66,9.34,16.36,22.46,2.12,68.33
27.946262,-0.0786,0.4653,0.9023,-25.88,8.30,16.30,22.01,2.18,68.68
27.946262,-0.0415,0.4038,0.9546,-5.74,6.16,24.72,21.75,2.13,69.13
28.006397,0.0898,0.2271,1.2271,-8.18,7.51,27.40,21.49,2.04,69.70
28.006397,0.0957,0.2617,1.0698,9.28,-7.57,6.29,21.69,1.92,69.99
28.036482,0.0278,0.4097,0.8091,-6.59,-6.59,-4.03,21.69,1.76,69.91
28.036482,-0.0029,0.4106,0.9033,3.23,1.46,4.39,21.54,1.75,69.90
28.066613,0.0161,0.3584,0.9214,-0.98,-0.61,1.89,21.60,1.70,69.97
28.066613,0.0059,0.3760,0.9136,0.31,0.92,-2.50,21.62,1.71,69.96
28.126595,-0.0132,0.3979,0.9272,-2.62,1.28,-4.88,21.58,1.77,69.89
28.126595,-0.0303,0.4043,0.9526,-2.32,-1.53,-3.91,21.52,1.80,69.80
28.157186,-0.0298,0.3999,0.9360,0.00,-1.34,-2.62,21.50,1.80,69.73
28.157186,-0.0337,0.4009,0.9268,2.32,-0.37,-0.98,21.52,1.80,69.69
28.186510,-0.0244,0.3955,0.9116,2.44,-0.12,-0.12,21.58,1.79,69.68
28.186510,-0.0190,0.3945,0.9023,0.85,-0.31,-0.37,21.61,1.79,69.68
28.246711,-0.0132,0.3936,0.8926,0.61,0.37,-0.24,21.63,1.79,69.67
28.246711,-0.0098,0.3906,0.8950,-0.67,0.73,-0.06,21.63,1.81,69.67
28.276613,-0.0039,0.3853,0.9077,-1.16,0.98,-0.06,21.60,1.82,69.68
28.276613,-0.0005,0.3818,0.9219,-0.06,1.89,-0.73,21.59,1.85,69.68
28.306647,-0.0098,0.3901,0.9277,0.12,2.26,-1.53,21.59,1.90,69.68
28.306647,-0.0166,0.3940,0.9365,0.06,1.04,-1.16,21.59,1.94,69.66
28.366617,-0.0137,0.3887,0.9404,0.43,0.55,-1.16,21.60,1.97,69.65
28.366617,-0.0117,0.3892,0.9390,1.22,0.06,-1.28,21.62,1.98,69.63
28.396649,-0.0068,0.3896,0.9341,1.28,-0.92,-1.53,21.64,1.98,69.60
28.396649,-0.0166,0.3936,0.9419,0.79,-0.61,-1.77,21.66,1.98,69.55
28.456626,-0.0200,0.3945,0.9390,3.23,-1.16,-0.98,21.70,1.98,69.53
28.456626,-0.0254,0.3965,0.9258,2.44,-1.77,-1.53,21.76,1.96,69.49
28.486389,-0.0288,0.3999,0.9131,2.50,-2.20,-0.85,21.81,1.93,69.45
28.486389,-0.0234,0.3970,0.9043,2.14,-2.08,-0.67,21.85,1.90,69.42
28.516314,-0.0190,0.3926,0.8960,1.34,-1.40,-1.59,21.89,1.87,69.38
28.516314,-0.0264,0.3970,0.8936,0.85,-0.55,-1.95,21.91,1.87,69.34
28.577292,-0.0332,0.4048,0.8984,0.61,0.00,-0.85,21.92,1.87,69.31
28.577292,-0.0273,0.4028,0.9077,0.12,0.12,-0.24,21.93,1.88,69.30
28.606271,-0.0229,0.4009,0.9175,-0.37,0.18,-0.55,21.93,1.89,69.30
28.606271,-0.0283,0.4048,0.9233,-0.31,0.00,-0.24,21.92,1.90,69.29
28.637661,-0.0234,0.4033,0.9175,0.55,-0.12,0.37,21.92,1.89,69.29
28.637661,-0.0195,0.4028,0.9155,0.18,-0.24,0.49,21.93,1.88,69.30
28.697437,-0.0137,0.4014,0.9102,0.00,-0.06,0.49,21.93,1.87,69.31
28.697437,-0.0132,0.4038,0.9121,-0.12,0.06,0.85,21.93,1.87,69.32
28.726419,-0.0127,0.4004,0.9199,-0.73,0.00,1.04,21.92,1.86,69.33
28.726419,-0.0103,0.3970,0.9194,0.18,-0.55,1.59,21.92,1.85,69.36
28.756275,-0.0117,0.3936,0.8960,0.00,-0.24,1.04,21.92,1.82,69.38
28.756275,-0.0234,0.4062,0.8438,-0.73,0.61,1.59,21.92,1.82,69.40
28.816607,-0.0337,0.4233,0.8022,-5.19,3.30,2.81,21.86,1.83,69.46
28.816607,-0.0386,0.4331,0.8325,-10.56,5.25,5.25,21.70,1.89,69.57
28.847459,-0.0020,0.3794,1.0190,-11.47,11.84,13.12,21.46,1.96,69.78
28.847459,0.0801,0.2593,1.1128,25.33,16.36,4.82,21.70,2.17,70.11
28.877806,0.0273,0.3867,0.8813,12.33,15.26,-6.47,22.05,2.47,70.18
28.877806,-0.0488,0.4224,0.9038,9.77,15.62,-1.34,22.25,2.80,70.24
28.936038,-0.0513,0.4116,0.9434,8.54,11.72,-2.01,22.46,3.05,70.32
28.936038,-0.0703,0.4365,0.9326,8.91,8.67,-1.46,22.64,3.25,70.36
28.965971,-0.0630,0.4336,0.9307,5.80,4.70,0.00,22.79,3.38,70.41
28.965971,-0.0649,0.4297,0.9453,-2.14,-2.20,-0.67,22.82,3.41,70.41
28.996049,-0.0601,0.4248,0.9302,-0.31,-4.94,0.43,22.78,3.33,70.37
28.996049,-0.0420,0.4087,0.8965,0.18,-3.48,0.43,22.79,3.25,70.35
29.056039,-0.0410,0.4019,0.9004,0.49,-2.20,0.00,22.79,3.19,70.33
29.056039,-0.0410,0.3979,0.9033,0.37,-1.53,0.12,22.80,3.16,70.31
29.085924,-0.0337,0.3975,0.9111,0.12,-1.16,0.18,22.80,3.13,70.31
29.085924,-0.0264,0.4014,0.9092,0.67,-0.37,-0.73,22.81,3.12,70.30
29.116271,-0.0317,0.4141,0.8940,2.14,1.40,-1.04,22.84,3.14,70.28
29.116271,-0.0337,0.4224,0.8745,1.40,1.40,-1.16,22.88,3.18,70.27
29.177489,-0.0439,0.4326,0.8618,-0.79,1.71,-0.43,22.88,3.21,70.26
29.177489,-0.0488,0.4292,0.8760,-2.62,2.32,0.85,22.85,3.25,70.29
29.206011,-0.0410,0.4155,0.9214,-4.88,1.77,1.04,22.77,3.27,70.32
29.206011,-0.0264,0.3931,0.9819,0.00,3.05,1.71,22.70,3.31,70.37
29.235994,-0.0249,0.3901,0.9585,3.72,1.95,-1.16,22.77,3.36,70.40
29.235994,-0.0513,0.4233,0.9058,0.18,-0.06,-1.77,22.81,3.38,70.37
29.296082,-0.0493,0.4175,0.8960,0.43,-0.49,-0.49,22.81,3.38,70.35
29.296082,-0.0430,0.4116,0.9004,0.00,0.55,-1.40,22.81,3.39,70.33
29.326084,-0.0503,0.4155,0.9131,0.24,0.67,-1.04,22.82,3.42,70.31
29.326084,-0.0459,0.4160,0.9170,0.06,-0.12,-0.24,22.82,3.42,70.31
29.357501,-0.0405,0.4116,0.9229,-0.37,-0.43,-0.67,22.81,3.42,70.30
29.357501,-0.0459,0.4111,0.9243,0.61,-0.49,-0.55,22.82,3.42,70.27
29.416043,-0.0474,0.4116,0.9219,0.79,-1.53,0.06,22.83,3.40,70.26
29.416043,-0.0396,0.4067,0.9111,0.98,-1.46,-0.31,22.85,3.37,70.25
29.446450,-0.0400,0.4136,0.8975,1.83,-0.12,-0.61,22.87,3.36,70.23
29.446450,-0.0444,0.4214,0.8906,0.55,0.24,-0.55,22.91,3.37,70.21
29.476125,-0.0454,0.4199,0.9009,-0.73,-0.31,-0.24,22.90,3.37,70.21
29.476125,-0.0386,0.4111,0.9131,-0.55,-0.18,-0.43,22.88,3.37,70.20
29.536329,-0.0366,0.4048,0.9199,-0.37,-0.43,-1.46,22.87,3.37,70.18
29.536329,-0.0376,0.4077,0.9146,0.06,-0.12,-1.95,22.87,3.37,70.14
29.565996,-0.0469,0.4150,0.9189,0.73,0.73,-1.89,22.87,3.40,70.11
29.565996,-0.0459,0.4199,0.9194,1.40,-0.37,-1.34,22.90,3.42,70.08
29.596079,-0.0425,0.4219,0.9053,1.04,-0.55,-2.01,22.92,3.42,70.04
29.596079,-0.0493,0.4263,0.8994,0.98,0.55,-1.77,22.93,3.44,70.01
29.656041,-0.0566,0.4297,0.9033,0.55,-0.06,-0.24,22.95,3.46,69.99
29.656041,-0.0444,0.4180,0.9058,-0.49,-0.98,0.79,22.95,3.44,69.99
29.686015,-0.0361,0.4082,0.9180,-0.98,-1.22,0.43,22.93,3.41,70.00
29.686015,-0.0376,0.4072,0.9136,0.98,-0.06,0.43,22.94,3.39,70.00
29.717491,-0.0430,0.4150,0.9092,0.85,0.18,0.31,22.96,3.39,70.00
29.717491,-0.0371,0.4155,0.9102,0.43,-0.61,0.31,22.97,3.38,70.01
29.776058,-0.0322,0.4111,0.8984,0.24,-0.24,-0.85,22.98,3.38,70.00
29.776058,-0.0288,0.4087,0.8799,0.00,0.55,-2.62,22.98,3.39,69.97
29.806411,-0.0273,0.4053,0.8794,-2.50,1.59,-5.00,22.95,3.45,69.91
29.806411,-0.0107,0.3940,0.8779,-3.23,1.53,-8.36,22.88,3.53,69.80
29.866034,-0.0283,0.3887,0.8906,-6.84,2.99,-12.57,22.78,3.66,69.61
29.866034,-0.0889,0.4233,0.9517,-2.01,6.53,-7.20,22.64,3.85,69.46
29.900919,-0.0640,0.4111,0.9458,4.82,3.30,-2.32,22.73,3.97,69.44
29.900919,-0.0381,0.4097,0.9102,-2.38,-1.95,-4.27,22.73,4.00,69.38
29.927484,-0.0522,0.4131,0.9116,-2.01,0.24,-4.21,22.67,4.02,69.29
29.927484,-0.0601,0.4146,0.9229,0.37,1.10,-3.30,22.66,4.06,69.22
29.986020,-0.0645,0.4175,0.9248,-1.34,-1.22,-3.36,22.65,4.09,69.16
29.986020,-0.0664,0.4204,0.9194,-0.24,-1.59,-1.77,22.63,4.08,69.10
30.017086,-0.0625,0.4160,0.9209,0.37,-0.55,-0.98,22.63,4.07,69.08
30.017086,-0.0679,0.4180,0.9229,0.24,-1.53,-0.61,22.64,4.06,69.05
30.046155,-0.0659,0.4141,0.9136,0.49,-1.77,0.00,22.65,4.03,69.03
30.046155,-0.0620,0.4106,0.9062,1.04,-1.16,0.49,22.66,4.00,69.03
30.106032,-0.0625,0.4121,0.9067,0.73,-1.16,0.43,22.69,3.98,69.03
30.106032,-0.0635,0.4170,0.9072,0.49,-0.79,0.49,22.69,3.95,69.02
30.136040,-0.0601,0.4150,0.9136,1.28,-0.73,1.53,22.71,3.93,69.04
30.136040,-0.0518,0.4155,0.9067,0.85,-0.55,1.59,22.73,3.91,69.06
30.166014,-0.0503,0.4116,0.9082,0.92,-0.43,1.34,22.75,3.88,69.08
30.166014,-0.0508,0.4136,0.9019,0.98,-0.24,1.28,22.77,3.86,69.10
30.226288,-0.0532,0.4141,0.9087,0.43,-0.06,1.53,22.79,3.85,69.13
30.226288,-0.0474,0.4116,0.9126,0.43,-0.55,1.71,22.80,3.83,69.16
30.256041,-0.0376,0.4058,0.9155,0.37,-0.55,0.61,22.81,3.81,69.18
30.256041,-0.0391,0.4067,0.9175,0.92,-0.55,-0.31,22.82,3.80,69.18
30.286975,-0.0386,0.4062,0.9150,1.46,-0.79,-0.92,22.85,3.79,69.16
30.286975,-0.0361,0.4038,0.9131,1.46,-0.92,-1.89,22.87,3.78,69.12
30.345987,-0.0347,0.4058,0.9136,1.59,-0.98,-2.81,22.90,3.78,69.07
30.345987,-0.0308,0.4033,0.9180,1.46,-1.28,-4.09,22.93,3.79,69.00
30.375992,-0.0264,0.4019,0.9180,1.04,-2.50,-5.86,22.95,3.80,68.89
30.375992,-0.0054,0.3896,0.8867,0.31,-2.08,-9.77,22.96,3.81,68.73
30.405940,0.0059,0.3760,0.8765,-2.44,1.34,-15.87,22.91,3.92,68.49
30.405940,-0.0679,0.4043,0.9004,-5.31,2.56,-18.86,22.83,4.11,68.18
30.465959,-0.1216,0.4375,0.9214,2.38,1.71,-10.13,22.77,4.27,67.92
30.465959,-0.0879,0.4277,0.9111,3.48,-1.04,-4.94,22.86,4.33,67.80
30.496250,-0.0806,0.4370,0.9004,-0.18,0.00,-5.31,22.87,4.36,67.70
30.496250,-0.1001,0.4478,0.9116,1.71,0.24,-2.01,22.88,4.41,67.63
30.526308,-0.0962,0.4419,0.9111,-0.55,-1.04,-0.55,22.88,4.40,67.60
30.526308,-0.0903,0.4341,0.9082,0.37,-1.28,1.77,22.88,4.37,67.61
30.585946,-0.0767,0.4302,0.9014,0.85,-0.31,2.81,22.90,4.33,67.65
30.585946,-0.0732,0.4277,0.9048,-0.31,-0.24,2.99,22.91,4.31,67.70
30.617067,-0.0703,0.4272,0.9155,-0.31,-0.79,4.03,22.90,4.27,67.76
30.617067,-0.0581,0.4146,0.9150,0.31,-0.85,4.09,22.91,4.21,67.84
30.647858,-0.0581,0.4121,0.9199,0.61,-0.49,4.21,22.92,4.17,67.91
30.647858,-0.0474,0.3999,0.9185,1.10,-1.22,3.97,22.95,4.11,67.97
30.707016,-0.0444,0.3999,0.9175,0.67,-1.22,2.99,22.96,4.06,68.03
30.707016,-0.0444,0.4019,0.9116,2.14,-0.61,2.69,23.00,4.02,68.07
30.737038,-0.0366,0.4048,0.9004,2.14,-0.24,1.77,23.05,3.99,68.11
30.737038,-0.0366,0.4116,0.8950,0.79,-0.49,0.49,23.08,3.98,68.13
30.767507,-0.0435,0.4185,0.8950,0.43,-0.24,0.43,23.09,3.97,68.13
30.767507,-0.0444,0.4185,0.9028,0.31,0.12,0.61,23.10,3.96,68.14
30.827384,-0.0449,0.4165,0.9126,0.18,0.00,0.06,23.10,3.96,68.15
30.827384,-0.0498,0.4194,0.9180,0.67,-0.12,-0.12,23.12,3.96,68.15
30.857027,-0.0581,0.4243,0.9141,1.34,0.00,0.31,23.14,3.96,68.15
30.857027,-0.0571,0.4268,0.9053,1.77,-0.37,1.46,23.17,3.94,68.16
30.886992,-0.0474,0.4224,0.8999,1.10,-0.61,1.34,23.20,3.92,68.19
30.886992,-0.0469,0.4209,0.8955,0.61,-0.06,0.67,23.22,3.91,68.20
30.946037,-0.0532,0.4219,0.9014,0.24,0.37,0.37,23.23,3.91,68.21
30.946037,-0.0552,0.4214,0.9053,0.12,0.00,0.79,23.24,3.90,68.23
30.977113,-0.0483,0.4136,0.9077,-0.31,0.00,0.31,23.24,3.89,68.24
30.977113,-0.0498,0.4131,0.9062,0.12,0.24,-0.18,23.24,3.89,68.24
31.005950,-0.0503,0.4165,0.9028,0.18,0.24,-0.18,23.24,3.90,68.24
31.005950,-0.0508,0.4170,0.8975,0.00,0.67,-0.31,23.24,3.91,68.24
31.065921,-0.0547,0.4219,0.8994,-0.18,0.92,-0.12,23.24,3.93,68.24
31.065921,-0.0537,0.4204,0.9033,-0.49,0.79,-0.24,23.23,3.95,68.25
31.097410,-0.0566,0.4224,0.9116,-0.73,0.43,-0.43,23.21,3.96,68.25
31.097410,-0.0605,0.4219,0.9160,-0.24,0.49,-0.18,23.21,3.97,68.25
31.127377,-0.0605,0.4258,0.9155,0.37,0.06,0.31,23.21,3.98,68.25
31.127377,-0.0522,0.4214,0.9062,0.12,-0.18,0.37,23.22,3.97,68.26
31.186438,-0.0527,0.4243,0.9038,-0.18,-0.12,0.37,23.21,3.97,68.26
31.186438,-0.0483,0.4209,0.8994,0.55,0.00,0.92,23.23,3.96,68.27
31.216253,-0.0430,0.4175,0.8994,0.00,0.00,0.49,23.23,3.95,68.29
31.216253,-0.0391,0.4111,0.8999,-0.49,-0.06,-0.43,23.23,3.94,68.29
31.276305,-0.0386,0.4062,0.9053,-0.73,0.06,-1.65,23.21,3.96,68.27
31.276305,-0.0410,0.4058,0.9141,-0.61,0.00,-2.56,23.19,3.98,68.23
31.306384,-0.0449,0.4092,0.9180,-0.06,0.00,-3.23,23.19,4.00,68.18
31.306384,-0.0479,0.4126,0.9146,0.85,0.12,-3.72,23.19,4.03,68.11
31.336266,-0.0571,0.4189,0.9126,1.04,0.12,-3.97,23.21,4.06,68.04
31.336266,-0.0659,0.4253,0.9194,0.43,-0.43,-3.48,23.22,4.09,67.97
31.396620,-0.0698,0.4292,0.9243,-0.18,-1.89,-2.32,23.22,4.09,67.91
31.396620,-0.0630,0.4287,0.9126,1.53,-1.59,-1.53,23.23,4.08,67.86
31.426667,-0.0635,0.4326,0.8999,1.53,-1.04,-1.04,23.26,4.06,67.82
31.426667,-0.0596,0.4312,0.8867,0.55,-1.53,-0.24,23.29,4.04,67.81
31.456277,-0.0552,0.4297,0.8857,-0.18,-0.85,0.12,23.29,4.02,67.80
31.456277,-0.0537,0.4277,0.8926,-0.12,0.00,0.31,23.28,4.01,67.80
31.516452,-0.0547,0.4263,0.8970,-0.31,0.43,0.12,23.28,4.01,67.81
31.516452,-0.0557,0.4243,0.8999,-0.49,0.43,0.00,23.27,4.02,67.81
31.546458,-0.0664,0.4272,0.9106,-0.67,0.73,0.49,23.26,4.03,67.82
31.546458,-0.0562,0.4199,0.9102,0.43,0.24,1.34,23.26,4.03,67.85
31.576277,-0.0542,0.4189,0.9043,-0.12,0.61,0.73,23.26,4.03,67.87
31.576277,-0.0547,0.4180,0.8979,0.67,1.16,0.98,23.27,4.04,67.90
31.636295,-0.0552,0.4204,0.9014,-0.18,0.73,0.98,23.27,4.05,67.92
31.636295,-0.0483,0.4160,0.9009,-0.73,0.31,0.31,23.27,4.05,67.94
31.666305,-0.0474,0.4175,0.9004,-0.79,0.79,-0.37,23.25,4.06,67.94
31.666305,-0.0552,0.4194,0.9062,-0.85,1.10,-0.61,23.24,4.08,67.94
31.696693,-0.0518,0.4185,0.9097,-0.55,0.37,0.06,23.22,4.10,67.94
31.696693,-0.0474,0.4136,0.9155,-1.34,0.00,-0.37,23.20,4.10,67.94
31.756300,-0.0498,0.4155,0.9189,-0.12,-0.06,-0.43,23.18,4.10,67.93
31.756300,-0.0527,0.4150,0.9185,0.00,-0.06,-1.04,23.18,4.11,67.92
31.786475,-0.0630,0.4238,0.9170,0.37,-0.61,-0.55,23.18,4.11,67.90
31.786475,-0.0586,0.4238,0.9043,0.85,-0.92,-0.06,23.20,4.09,67.89
31.816373,-0.0571,0.4248,0.8984,0.06,-0.73,-0.43,23.21,4.08,67.88
31.816373,-0.0605,0.4258,0.8950,-0.31,-0.55,-0.24,23.21,4.07,67.87
31.876310,-0.0620,0.4229,0.8965,-0.79,-0.18,0.06,23.20,4.06,67.87
31.876310,-0.0566,0.4180,0.9028,-0.85,-0.12,0.24,23.18,4.06,67.87
31.906349,-0.0557,0.4170,0.9033,-1.22,0.06,-0.12,23.15,4.06,67.87
31.906349,-0.0591,0.4189,0.9033,-1.04,0.43,-0.06,23.13,4.06,67.87
31.936279,-0.0615,0.4209,0.9053,-1.10,0.49,0.37,23.11,4.07,67.88
31.936279,-0.0566,0.4204,0.9048,-0.98,0.37,0.73,23.09,4.07,67.90
31.996611,-0.0547,0.4194,0.9043,-0.73,0.85,0.73,23.08,4.08,67.92
31.996611,-0.0522,0.4194,0.9062,-0.85,0.79,0.67,23.06,4.09,67.94
32.026476,-0.0498,0.4199,0.9072,-1.46,0.49,0.67,23.03,4.09,67.96
32.026476,-0.0454,0.4165,0.9067,-0.73,0.92,0.55,23.02,4.10,67.98
32.056269,-0.0483,0.4175,0.9126,-1.04,0.85,0.12,23.00,4.11,67.99
32.056269,-0.0469,0.4150,0.9136,-0.18,0.55,0.31,22.99,4.13,68.01
32.116321,-0.0459,0.4141,0.9121,0.12,0.73,-0.24,22.99,4.14,68.01
32.116321,-0.0498,0.4150,0.9160,0.00,0.43,-0.49,22.99,4.15,68.01
32.146398,-0.0522,0.4175,0.9180,0.24,0.00,-0.12,22.99,4.15,68.01
32.146398,-0.0493,0.4126,0.9209,0.31,-0.06,-0.43,23.00,4.15,68.00
32.176153,-0.0527,0.4126,0.9185,0.61,-0.31,-0.85,23.01,4.16,67.98
32.176153,-0.0562,0.4141,0.9121,1.04,-0.61,-1.10,23.03,4.15,67.96
32.236048,-0.0610,0.4165,0.9048,1.04,-0.61,-0.79,23.04,4.15,67.94
32.236048,-0.0562,0.4155,0.8970,0.98,-0.49,-0.61,23.07,4.14,67.92
32.266071,-0.0591,0.4185,0.8926,0.06,0.06,-1.28,23.08,4.15,67.90
32.266071,-0.0679,0.4238,0.8936,0.06,0.49,-0.79,23.08,4.16,67.88
32.296385,-0.0674,0.4253,0.8970,-0.43,0.49,-0.24,23.08,4.17,67.88
32.296385,-0.0640,0.4238,0.9014,-0.92,0.61,0.00,23.06,4.19,67.88
32.386205,-0.0654,0.4238,0.9067,-0.79,0.85,0.12,23.04,4.20,67.90
32.386205,-0.0640,0.4214,0.9111,-0.43,0.73,0.37,23.03,4.21,67.91
32.387129,-0.0645,0.4214,0.9116,-0.67,0.37,0.43,23.02,4.22,67.92
32.387129,-0.0620,0.4214,0.9111,-0.37,0.24,0.92,23.01,4.22,67.93
32.416089,-0.0576,0.4185,0.9131,-0.55,0.06,1.04,23.01,4.21,67.96
32.416089,-0.0562,0.4165,0.9155,-0.49,-0.37,0.98,23.04,4.19,67.96
32.476095,-0.0522,0.4131,0.9155,-0.18,-0.73,0.92,23.05,4.18,67.96
32.476095,-0.0503,0.4121,0.9116,0.00,-0.67,0.61,23.05,4.17,67.96
32.506029,-0.0508,0.4111,0.9062,0.24,-0.55,0.43,23.06,4.17,67.96
32.506029,-0.0513,0.4136,0.9043,0.00,-0.49,0.06,23.06,4.17,67.96
32.566353,-0.0518,0.4150,0.9058,-0.24,-0.61,0.00,23.06,4.16,67.96
32.566353,-0.0503,0.4131,0.9077,-0.37,-0.49,-0.55,23.07,4.16,67.97
32.596253,-0.0581,0.4170,0.9146,-0.55,-0.61,-0.73,23.07,4.16,67.97
32.596253,-0.0610,0.4194,0.9160,0.00,-0.92,-0.49,23.07,4.16,67.97
32.626288,-0.0615,0.4204,0.9155,0.24,-0.79,-0.06,23.07,4.16,67.97
32.626288,-0.0581,0.4165,0.9136,0.61,-1.10,0.12,23.07,4.16,67.97
32.686042,-0.0562,0.4185,0.9087,-0.12,-1.22,-0.12,23.07,4.16,67.97
32.686042,-0.0537,0.4180,0.9033,0.43,-1.10,0.18,23.07,4.16,67.97
32.716055,-0.0566,0.4204,0.9043,-0.24,-0.61,0.06,23.07,4.16,67.97
32.716055,-0.0576,0.4238,0.9058,0.24,-0.67,0.85,23.07,4.16,67.97
32.746031,-0.0513,0.4199,0.9058,0.18,-0.49,0.67,23.07,4.16,67.97
32.746031,-0.0537,0.4238,0.9067,0.37,-0.43,1.10,23.07,4.15,67.97
32.806000,-0.0483,0.4180,0.9038,0.43,-0.37,1.28,23.07,4.15,67.97
32.806000,-0.0459,0.4141,0.9058,-0.18,-0.18,0.85,23.07,4.15,67.97
32.835931,-0.0444,0.4116,0.9067,0.18,0.00,0.37,23.08,4.15,67.97
32.835931,-0.0503,0.4146,0.9146,0.00,0.06,0.12,23.08,4.15,67.98
32.866031,-0.0498,0.4141,0.9170,0.18,-0.43,0.18,23.08,4.15,67.98
32.866031,-0.0474,0.4146,0.9150,0.37,-0.37,0.06,23.08,4.15,67.98
32.926370,-0.0479,0.4165,0.9092,0.92,-0.37,0.31,23.08,4.15,67.98
32.926370,-0.0439,0.4155,0.8999,0.79,-0.49,-0.12,23.08,4.15,67.98
32.956012,-0.0469,0.4175,0.8940,0.12,0.00,-0.49,23.08,4.15,67.98
32.956012,-0.0498,0.4209,0.8936,-0.06,0.18,-0.18,23.08,4.14,67.98
32.986028,-0.0518,0.4204,0.9053,-1.04,0.37,-0.31,23.08,4.14,67.98
32.986028,-0.0532,0.4199,0.9146,-0.18,0.06,0.00,23.08,4.14,67.98
33.046043,-0.0508,0.4170,0.9165,-0.12,0.12,-0.43,23.09,4.11,67.98
33.046043,-0.0537,0.4209,0.9116,0.55,0.24,-0.37,23.09,4.11,68.05
33.076050,-0.0547,0.4233,0.9033,0.55,0.18,0.18,23.09,4.11,68.12
33.076050,-0.0503,0.4233,0.8989,0.12,0.06,0.37,23.10,4.11,68.18
33.106059,-0.0493,0.4214,0.8984,-0.37,0.24,0.06,23.10,4.11,68.24
33.106059,-0.0488,0.4199,0.9028,-0.37,0.24,-0.06,23.10,4.10,68.30
33.166130,-0.0488,0.4165,0.9097,-0.85,0.12,-0.18,23.10,4.10,68.36
33.166130,-0.0483,0.4126,0.9165,-0.49,-0.06,-0.06,23.10,4.10,68.41
33.196214,-0.0469,0.4121,0.9180,-0.12,0.00,-0.37,23.10,4.10,68.46
33.196214,-0.0503,0.4126,0.9146,0.06,-0.12,-0.61,23.10,4.09,68.51
33.225975,-0.0503,0.4165,0.9087,0.24,-0.31,-0.49,23.10,4.09,68.56
33.225975,-0.0493,0.4175,0.9043,0.37,-0.24,-0.61,23.10,4.09,68.61
33.286005,-0.0503,0.4199,0.8999,-0.18,-0.06,-1.16,23.10,4.09,68.65
33.286005,-0.0557,0.4238,0.9023,-0.06,0.06,-0.79,23.10,4.08,68.70
33.316027,-0.0576,0.4229,0.9072,-0.31,0.24,-0.18,23.11,4.08,68.74
33.316027,-0.0581,0.4219,0.9121,-0.24,0.06,0.00,23.11,4.08,68.78
33.346051,-0.0586,0.4219,0.9106,-0.18,0.00,0.06,23.11,4.08,68.82
33.346051,-0.0581,0.4219,0.9092,-0.06,0.00,0.24,23.12,4.08,68.86
33.406020,-0.0610,0.4224,0.9121,-0.18,-0.12,1.10,23.12,4.08,68.90
33.406020,-0.0518,0.4141,0.9111,0.49,-0.24,1.71,23.12,4.07,68.91
33.436017,-0.0459,0.4082,0.9092,0.43,-0.06,0.61,23.13,4.05,68.93
33.436017,-0.0518,0.4116,0.9082,0.43,0.00,-0.06,23.14,4.05,68.93
33.466193,-0.0571,0.4175,0.9087,0.06,-0.24,0.06,23.15,4.05,68.93
33.466193,-0.0488,0.4180,0.9062,0.06,-0.73,0.55,23.15,4.04,68.93
33.526369,-0.0371,0.4204,0.9033,0.31,-0.43,0.00,23.15,4.02,68.93
33.526369,-0.0337,0.4219,0.8975,0.18,0.00,-0.43,23.16,4.02,68.93
33.556044,-0.0396,0.4219,0.9004,-0.61,-0.12,-0.73,23.15,4.03,68.92
33.556044,-0.0420,0.4175,0.8994,-0.18,0.00,-0.67,23.14,4.03,68.91
33.586092,-0.0493,0.4180,0.9009,-0.31,0.79,-1.04,23.14,4.04,68.89
33.586092,-0.0562,0.4224,0.9102,-0.43,0.31,-0.98,23.13,4.06,68.88
33.646022,-0.0591,0.4253,0.9165,-0.85,0.00,-0.49,23.12,4.08,68.86
33.646022,-0.0532,0.4224,0.9194,0.18,-0.37,0.37,23.11,4.07,68.86
33.676004,-0.0439,0.4111,0.9141,0.24,-0.49,-0.06,23.12,4.06,68.86
33.676004,-0.0483,0.4082,0.9106,0.55,-0.18,-0.43,23.12,4.05,68.86
33.706035,-0.0562,0.4111,0.9077,0.55,0.18,-0.49,23.13,4.06,68.85
33.706035,-0.0566,0.4146,0.9062,0.61,0.06,-0.06,23.14,4.06,68.84
33.766073,-0.0532,0.4175,0.9072,-0.06,0.12,-0.61,23.15,4.07,68.83
33.766073,-0.0547,0.4229,0.9082,0.18,0.24,-0.67,23.15,4.08,68.82
33.796523,-0.0566,0.4253,0.9082,0.00,0.06,-0.24,23.15,4.09,68.82
33.796523,-0.0576,0.4258,0.9097,0.24,0.00,0.79,23.15,4.09,68.82
33.826449,-0.0425,0.4180,0.9053,0.49,0.00,0.92,23.16,4.08,68.84
33.826449,-0.0430,0.4185,0.9028,-0.06,0.24,-0.18,23.16,4.08,68.85
33.886073,-0.0498,0.4194,0.9019,0.12,0.37,-0.24,23.16,4.09,68.85
33.886073,-0.0552,0.4224,0.9067,-0.24,0.24,0.24,23.16,4.09,68.85
33.915992,-0.0488,0.4180,0.9077,-0.06,0.00,0.37,23.16,4.09,68.86
33.915992,-0.0454,0.4155,0.9058,-0.06,0.18,-0.18,23.16,4.09,68.86
33.945985,-0.0503,0.4160,0.9048,-0.06,0.43,-0.73,23.16,4.10,68.85
33.945985,-0.0552,0.4194,0.9053,0.00,0.24,-0.24,23.16,4.12,68.85
34.005926,-0.0513,0.4180,0.9058,-0.06,0.12,-0.18,23.16,4.13,68.85
34.005926,-0.0488,0.4194,0.9058,-0.06,0.24,-0.61,23.15,4.13,68.84
34.036031,-0.0532,0.4219,0.9072,-0.18,0.18,-0.85,23.15,4.14,68.82
34.036031,-0.0576,0.4229,0.9097,-0.12,0.00,-0.31,23.15,4.15,68.81
34.096277,-0.0547,0.4185,0.9102,0.18,0.00,-0.24,23.15,4.15,68.81
34.096277,-0.0547,0.4199,0.9067,0.00,0.00,-0.37,23.15,4.15,68.80
34.126265,-0.0571,0.4219,0.9077,0.00,-0.12,-0.18,23.15,4.16,68.80
34.126265,-0.0557,0.4224,0.9077,0.00,-0.31,0.18,23.15,4.15,68.80
34.155927,-0.0518,0.4199,0.9062,0.31,-0.18,0.31,23.15,4.14,68.80
34.155927,-0.0508,0.4180,0.9033,0.18,-0.18,0.00,23.16,4.14,68.80
34.215944,-0.0503,0.4175,0.9028,-0.06,-0.12,-0.24,23.16,4.14,68.80
34.215944,-0.0557,0.4204,0.9038,-0.12,0.18,-0.18,23.15,4.14,68.79
34.245920,-0.0542,0.4209,0.9038,-0.06,0.12,0.18,23.15,4.14,68.80
34.245920,-0.0513,0.4204,0.9082,-0.49,0.00,0.00,23.15,4.14,68.80
34.276069,-0.0522,0.4194,0.9116,-0.49,0.06,-0.18,23.14,4.14,68.80
34.276069,-0.0547,0.4204,0.9136,0.12,-0.06,0.12,23.13,4.14,68.80
34.336002,-0.0527,0.4194,0.9141,0.18,-0.24,0.49,23.14,4.14,68.80
34.336002,-0.0503,0.4180,0.9092,0.37,-0.43,0.61,23.14,4.12,68.81
34.365977,-0.0474,0.4150,0.9043,0.31,-0.37,0.18,23.15,4.11,68.81
34.365977,-0.0483,0.4180,0.9019,0.00,-0.18,-0.06,23.15,4.10,68.81
34.396270,-0.0483,0.4160,0.9033,0.00,-0.18,-0.18,23.15,4.10,68.80
34.396270,-0.0493,0.4180,0.9062,-0.24,-0.31,-0.24,23.20,4.01,68.79
34.455993,-0.0469,0.4146,0.9082,0.00,0.00,-0.61,23.20,4.00,68.78
34.455993,-0.0518,0.4209,0.9087,0.37,0.06,-0.49,23.20,4.00,68.77
34.485994,-0.0493,0.4175,0.9092,0.00,-0.06,-0.43,23.20,4.00,68.76
34.485994,-0.0503,0.4189,0.9126,-0.12,-0.43,-0.61,23.20,4.00,68.75
34.515996,-0.0508,0.4185,0.9082,0.49,-0.31,-0.61,23.20,4.00,68.75
34.515996,-0.0552,0.4243,0.9072,0.37,-0.12,-0.49,23.20,3.99,68.74
34.576010,-0.0557,0.4272,0.9038,0.49,-0.43,0.06,23.20,3.99,68.73
34.576010,-0.0522,0.4277,0.9009,0.31,-0.18,0.31,23.21,3.99,68.72
34.606027,-0.0503,0.4238,0.8994,0.37,0.06,0.31,23.21,3.99,68.72
34.606027,-0.0522,0.4229,0.8989,-0.12,0.12,0.43,23.21,3.99,68.71
34.635986,-0.0493,0.4175,0.9009,-0.24,0.18,0.49,23.21,3.99,68.70
34.635986,-0.0498,0.4155,0.9087,-0.24,0.61,0.00,23.22,3.99,68.70
34.696350,-0.0532,0.4189,0.9131,0.18,0.49,0.06,23.22,3.99,68.69
34.696350,-0.0532,0.4209,0.9136,0.12,0.24,0.12,23.22,3.98,68.69
34.726266,-0.0508,0.4204,0.9082,0.49,0.00,0.31,23.22,3.98,68.68
34.726266,-0.0527,0.4243,0.9072,0.37,0.12,0.55,23.22,3.98,68.68
34.756023,-0.0483,0.4219,0.9048,0.49,-0.06,0.85,23.22,3.98,68.67
34.756023,-0.0474,0.4180,0.9067,0.37,0.00,0.49,23.23,3.98,68.66
34.815958,-0.0493,0.4175,0.9058,0.43,-0.06,0.24,23.23,3.98,68.66
34.815958,-0.0508,0.4175,0.9053,0.12,0.00,0.12,23.23,3.98,68.65
34.845929,-0.0479,0.4185,0.9048,0.24,-0.06,0.06,23.23,3.97,68.65
34.845929,-0.0493,0.4199,0.9043,0.37,0.06,-0.18,23.23,3.97,68.64
34.876032,-0.0503,0.4214,0.9019,0.43,0.12,-0.31,23.23,3.97,68.64
34.876032,-0.0518,0.4229,0.9004,0.06,0.12,-0.37,23.23,3.97,68.63
34.936259,-0.0537,0.4238,0.9009,-0.18,0.24,-0.24,23.23,3.97,68.63
34.936259,-0.0537,0.4263,0.9033,-0.12,0.24,0.00,23.24,3.97,68.63
34.966360,-0.0508,0.4243,0.9067,-0.24,0.00,0.00,23.24,3.96,68.62
34.966360,-0.0493,0.4233,0.9121,-0.31,-0.06,-0.12,23.24,3.96,68.62
34.996358,-0.0508,0.4224,0.9136,0.00,-0.18,0.00,23.24,3.96,68.62
34.996358,-0.0522,0.4219,0.9131,0.37,-0.43,0.18,23.24,3.96,68.61
35.056433,-0.0483,0.4180,0.9106,0.43,-0.67,0.12,23.24,3.96,68.60
35.056433,-0.0532,0.4199,0.9082,0.43,-0.49,-0.06,23.24,3.96,68.60
35.086564,-0.0518,0.4204,0.9038,0.79,-0.55,0.06,23.24,3.96,68.59
35.086564,-0.0532,0.4224,0.8989,0.18,-0.43,0.00,23.25,3.96,68.59
35.115958,-0.0518,0.4248,0.8931,0.43,-0.24,0.37,23.25,3.95,68.59
35.115958,-0.0474,0.4238,0.8940,-0.31,0.06,0.06,23.25,3.95,68.59
35.175966,-0.0474,0.4258,0.9019,-0.55,-0.06,0.24,23.25,3.95,68.58
35.175966,-0.0444,0.4224,0.9033,-0.37,0.18,0.18,23.26,3.95,68.58
35.205945,-0.0435,0.4204,0.9048,-0.24,0.37,0.00,23.26,3.94,68.58
35.205945,-0.0454,0.4209,0.9062,-0.31,0.43,-0.24,23.26,3.94,68.57
35.236368,-0.0488,0.4238,0.9092,-0.43,0.49,-0.31,23.26,3.94,68.57
35.236368,-0.0483,0.4233,0.9116,0.00,0.06,0.00,23.26,3.93,68.57
35.296657,-0.0464,0.4224,0.9097,0.00,0.00,-0.24,23.26,3.93,68.56
35.296657,-0.0488,0.4204,0.9082,0.00,-0.06,-0.43,23.26,3.93,68.56
35.326215,-0.0522,0.4189,0.9072,0.06,-0.06,-0.31,23.27,3.93,68.55
35.326215,-0.0518,0.4185,0.9038,0.12,-0.06,-0.24,23.27,3.93,68.55
35.356330,-0.0518,0.4199,0.9048,0.00,0.00,-0.43,23.27,3.93,68.55
35.356330,-0.0527,0.4229,0.9048,0.00,0.12,-0.43,23.27,3.92,68.55
35.416620,-0.0527,0.4243,0.9067,-0.12,0.06,-0.31,23.27,3.92,68.54
35.416620,-0.0498,0.4248,0.9053,-0.12,0.00,-0.12,23.27,3.92,68.54
35.446085,-0.0483,0.4219,0.9053,-0.12,0.06,-0.18,23.27,3.92,68.54
35.446085,-0.0488,0.4204,0.9038,-0.18,0.18,-0.31,23.27,3.92,68.54
35.506273,-0.0508,0.4199,0.9028,-0.31,0.61,-0.43,23.28,3.92,68.53
35.506273,-0.0503,0.4214,0.9048,-0.12,0.67,-0.18,23.28,3.92,68.53
35.536357,-0.0488,0.4194,0.9067,-0.55,0.37,-0.49,23.28,3.92,68.53
35.536357,-0.0513,0.4204,0.9116,-0.43,0.31,-0.18,23.28,3.91,68.53
35.566369,-0.0508,0.4199,0.9146,-0.06,0.12,-0.12,23.28,3.91,68.52
35.566369,-0.0498,0.4214,0.9150,0.00,-0.06,-0.49,23.28,3.91,68.52
35.627778,-0.0498,0.4238,0.9106,0.49,-0.06,-0.67,23.28,3.91,68.52
35.627778,-0.0527,0.4272,0.9043,0.55,0.00,-0.37,23.29,3.91,68.52
35.655945,-0.0522,0.4248,0.9004,0.37,-0.18,0.00,23.29,3.91,68.51
35.655945,-0.0508,0.4219,0.8999,0.00,0.00,0.00,23.29,3.91,68.51
35.686039,-0.0503,0.4189,0.9028,-0.06,0.37,-0.12,23.29,3.91,68.51
35.686039,-0.0513,0.4194,0.9077,-0.18,0.24,-0.37,23.29,3.91,68.51
35.746058,-0.0547,0.4219,0.9116,0.00,0.12,-0.37,23.29,3.90,68.51
35.746058,-0.0547,0.4219,0.9102,0.31,0.18,-0.18,23.29,3.90,68.50
35.776071,-0.0542,0.4209,0.9058,0.12,0.18,-0.24,23.29,3.90,68.50
35.776071,-0.0532,0.4199,0.9019,0.12,0.12,-0.18,23.30,3.90,68.50
35.806010,-0.0552,0.4229,0.9038,-0.31,0.31,-0.18,23.30,3.90,68.49
35.806010,-0.0547,0.4248,0.9053,0.00,0.18,0.24,23.30,3.90,68.49
35.866048,-0.0537,0.4233,0.9087,-0.24,0.12,0.31,23.30,3.90,68.49
35.866048,-0.0532,0.4209,0.9116,-0.24,-0.06,0.18,23.30,3.90,68.49
35.896362,-0.0537,0.4224,0.9136,0.06,-0.18,0.31,23.30,3.90,68.49
35.896362,-0.0479,0.4199,0.9082,0.24,-0.43,0.00,23.30,3.90,68.48
35.926345,-0.0474,0.4229,0.9038,0.31,-0.18,-0.06,23.30,3.90,68.48
35.926345,-0.0479,0.4238,0.9014,0.31,-0.12,0.00,23.30,3.90,68.48
35.986069,-0.0464,0.4209,0.9023,-0.12,-0.12,-0.12,23.31,3.89,68.48
35.986069,-0.0483,0.4214,0.9028,-0.12,-0.24,-0.31,23.31,3.89,68.48
36.016007,-0.0483,0.4209,0.9053,-0.18,-0.12,-0.43,23.31,3.89,68.48
36.016007,-0.0488,0.4199,0.9092,-0.24,-0.37,-0.61,23.31,3.89,68.47
36.046072,-0.0503,0.4189,0.9102,0.18,-0.49,-0.79,23.31,3.89,68.47
36.046072,-0.0522,0.4209,0.9067,0.24,-0.24,-0.85,23.31,3.89,68.47
36.105999,-0.0576,0.4224,0.9043,0.18,-0.31,-0.73,23.31,3.88,68.47
36.105999,-0.0562,0.4243,0.8940,0.43,0.18,-0.37,23.31,3.88,68.47
36.136062,-0.0547,0.4253,0.8857,0.61,1.16,-0.31,23.31,3.88,68.47
36.136062,-0.0571,0.4282,0.8896,-0.85,1.10,-0.43,23.32,3.89,68.47
36.165991,-0.0576,0.4253,0.9028,-1.59,0.98,-0.31,23.32,3.89,68.47
36.165991,-0.0601,0.4263,0.9165,-0.79,1.22,0.18,23.32,3.89,68.46
36.226347,-0.0571,0.4248,0.9214,-0.31,0.85,0.73,23.33,3.89,68.46
36.226347,-0.0537,0.4219,0.9219,-0.18,0.12,0.73,23.33,3.89,68.46
36.256013,-0.0498,0.4185,0.9170,0.06,-0.06,0.67,23.33,3.89,68.46
36.256013,-0.0469,0.4180,0.9121,0.61,-0.12,0.49,23.33,3.89,68.46
36.286089,-0.0483,0.4194,0.9087,0.43,-0.31,0.49,23.33,3.89,68.46
36.286089,-0.0449,0.4189,0.9004,0.43,-0.24,0.43,23.33,3.89,68.45
36.346016,-0.0444,0.4175,0.9014,0.18,-0.06,-0.12,23.33,3.88,68.45
36.346016,-0.0508,0.4199,0.8999,0.06,0.06,-0.49,23.33,3.88,68.45
36.376377,-0.0552,0.4229,0.9014,0.12,0.06,-0.12,23.33,3.88,68.45
36.376377,-0.0479,0.4204,0.9019,0.00,0.06,-0.31,23.33,3.88,68.44
36.406368,-0.0498,0.4219,0.9038,-0.12,0.31,-0.85,23.33,3.88,68.44
36.406368,-0.0562,0.4233,0.9058,0.06,0.43,-0.85,23.33,3.88,68.44
36.466061,-0.0620,0.4268,0.9102,0.00,0.12,-0.31,23.33,3.88,68.44
36.466061,-0.0552,0.4248,0.9092,0.37,0.00,0.12,23.33,3.88,68.44
36.496356,-0.0552,0.4243,0.9077,0.12,-0.06,-0.18,23.33,3.88,68.44
36.496356,-0.0596,0.4258,0.9067,0.18,-0.24,0.12,23.34,3.88,68.44
36.526337,-0.0586,0.4219,0.9014,0.43,0.00,0.55,23.34,3.88,68.44
36.526337,-0.0542,0.4219,0.9019,0.31,0.24,0.37,23.34,3.88,68.44
36.586040,-0.0537,0.4224,0.9014,0.18,0.12,0.12,23.35,3.88,68.43
36.586040,-0.0566,0.4243,0.9004,-0.31,0.06,0.06,23.35,3.88,68.43
36.616061,-0.0547,0.4253,0.9019,-0.06,0.06,0.61,23.35,3.88,68.43
36.616061,-0.0479,0.4204,0.9067,-0.24,0.00,0.24,23.35,3.88,68.43
36.646034,-0.0508,0.4219,0.9126,-0.12,0.00,-0.24,23.35,3.88,68.43
36.646034,-0.0547,0.4258,0.9121,0.79,0.06,0.12,23.35,3.88,68.43
36.706091,-0.0513,0.4243,0.9072,0.61,-0.31,0.31,23.35,3.88,68.43
36.706091,-0.0459,0.4204,0.9028,0.55,-0.55,0.24,23.35,3.88,68.43
36.735945,-0.0425,0.4170,0.8989,0.73,0.00,-0.31,23.36,3.88,68.43
36.735945,-0.0430,0.4165,0.8950,0.49,0.24,-0.73,23.36,3.88,68.43
36.766036,-0.0420,0.4160,0.8979,0.00,0.55,-1.53,23.36,3.89,68.41
36.766036,-0.0503,0.4253,0.9082,0.00,0.49,-1.28,23.35,3.91,68.39
36.826344,-0.0469,0.4253,0.9082,0.31,0.31,-1.10,23.35,3.93,68.37
36.826344,-0.0493,0.4268,0.9087,0.18,0.18,-1.53,23.35,3.94,68.35
36.856038,-0.0513,0.4253,0.9019,0.37,-0.06,-1.46,23.35,3.96,68.32
36.856038,-0.0547,0.4243,0.8984,-0.06,0.12,-1.22,23.35,3.97,68.29
36.916052,-0.0518,0.4199,0.8970,0.00,0.06,-0.92,23.34,3.98,68.27
36.916052,-0.0522,0.4175,0.9014,-0.73,0.24,-1.53,23.33,3.99,68.25
36.946032,-0.0562,0.4194,0.9082,-0.18,0.43,-1.77,23.31,4.01,68.22
36.946032,-0.0610,0.4233,0.9121,0.00,0.55,-1.83,23.31,4.03,68.19
36.976043,-0.0674,0.4312,0.9087,0.55,0.43,-1.28,23.31,4.06,68.16
36.976043,-0.0649,0.4321,0.9014,0.37,0.18,-0.98,23.31,4.07,68.14
37.035947,-0.0654,0.4326,0.8979,0.00,0.37,-0.73,23.31,4.08,68.13
37.035947,-0.0688,0.4326,0.8975,0.06,0.49,-0.12,23.31,4.09,68.13
37.066006,-0.0659,0.4316,0.8984,-0.06,0.37,0.43,23.31,4.10,68.13
37.066006,-0.0576,0.4282,0.8989,-0.31,0.24,0.67,23.30,4.10,68.14
37.230511,-0.0532,0.4224,0.9023,-0.67,0.43,0.31,23.29,4.10,68.15
37.230511,-0.0547,0.4229,0.9077,-0.55,0.49,0.18,23.27,4.10,68.16
37.230546,-0.0527,0.4214,0.9111,-0.37,0.12,0.24,23.26,4.11,68.17
37.230546,-0.0518,0.4204,0.9116,-0.37,-0.12,0.06,23.25,4.10,68.17
37.230556,-0.0483,0.4189,0.9097,0.12,-0.24,-0.31,23.24,4.10,68.16
37.230556,-0.0498,0.4199,0.9058,-0.06,-0.24,-0.73,23.24,4.10,68.15
37.230568,-0.0566,0.4214,0.9067,-0.06,-0.49,-0.67,23.23,4.10,68.13
37.230568,-0.0562,0.4199,0.9058,0.06,-0.55,-0.67,23.23,4.09,68.12
37.275906,-0.0605,0.4229,0.9053,0.00,-0.49,-0.98,23.23,4.09,68.09
37.275906,-0.0635,0.4258,0.9033,0.12,-0.43,-0.79,23.23,4.09,68.07
37.305843,-0.0669,0.4272,0.9014,0.00,-0.24,-0.55,23.22,4.09,68.05
37.305843,-0.0654,0.4272,0.8979,-0.31,-0.31,-0.24,23.21,4.08,68.04
37.335879,-0.0615,0.4287,0.8965,-0.37,-0.24,-0.12,23.20,4.08,68.03
37.335879,-0.0610,0.4282,0.9004,-0.92,-0.06,-0.06,23.19,4.08,68.03
37.396338,-0.0610,0.4268,0.9058,-0.85,-0.12,0.43,23.16,4.07,68.03
37.396338,-0.0576,0.4238,0.9102,-0.49,-0.12,0.61,23.15,4.06,68.04
37.427379,-0.0532,0.4214,0.9116,-0.49,-0.24,0.55,23.14,4.05,68.05
37.427379,-0.0503,0.4194,0.9116,-0.37,-0.61,0.18,23.13,4.04,68.05
37.456059,-0.0493,0.4204,0.9106,-0.24,-0.55,-0.06,23.12,4.03,68.04
37.456059,-0.0503,0.4219,0.9062,0.31,-0.61,0.18,23.11,4.02,68.04
37.516098,-0.0474,0.4199,0.9014,0.06,-0.37,0.00,23.12,4.00,68.04
37.516098,-0.0498,0.4194,0.9023,-0.18,-0.55,-0.31,23.11,3.99,68.03
37.546012,-0.0522,0.4214,0.9043,-0.55,-0.49,-0.61,23.10,3.99,68.01
37.546012,-0.0596,0.4224,0.9077,-0.12,-0.18,-0.61,23.09,3.98,67.99
37.576164,-0.0576,0.4219,0.9067,0.24,-0.24,-0.18,23.08,3.98,67.99
37.576164,-0.0571,0.4209,0.9062,-0.12,-0.37,-0.12,23.08,3.98,67.98
37.635996,-0.0527,0.4189,0.8999,-0.12,-0.49,-0.18,23.08,3.97,67.97
37.635996,-0.0547,0.4209,0.9014,-0.43,0.00,-0.49,23.07,3.97,67.96
37.666315,-0.0571,0.4253,0.9048,-0.18,0.18,-0.12,23.05,3.97,67.96
37.666315,-0.0562,0.4268,0.9043,-0.06,0.12,0.00,23.05,3.97,67.96
37.699562,-0.0562,0.4287,0.9033,-0.06,0.31,0.00,23.04,3.98,67.96
37.699562,-0.0591,0.4297,0.9028,-0.12,0.31,0.37,23.04,3.98,67.96
37.756918,-0.0566,0.4253,0.9028,-0.37,0.00,0.67,23.03,3.98,67.97
37.756918,-0.0532,0.4209,0.9062,-0.55,0.12,0.73,23.02,3.98,67.98
37.785964,-0.0479,0.4165,0.9097,-0.31,0.00,0.61,23.12,3.96,68.00
37.785964,-0.0430,0.4146,0.9146,-0.61,-0.24,-0.06,23.12,3.96,68.00
37.816000,-0.0435,0.4141,0.9126,0.00,-0.18,-0.49,23.12,3.96,68.00
37.816000,-0.0454,0.4146,0.9058,0.37,0.00,-0.79,23.12,3.96,67.99
37.876019,-0.0493,0.4160,0.9004,0.00,0.06,-1.22,23.12,3.95,67.99
37.876019,-0.0527,0.4194,0.8950,0.00,0.31,-1.34,23.12,3.95,67.99
37.905941,-0.0596,0.4248,0.8975,-0.31,0.43,-1.16,23.13,3.95,67.99
37.905941,-0.0591,0.4258,0.8994,-0.79,0.43,-0.98,23.13,3.95,67.99
37.935992,-0.0615,0.4243,0.9058,-1.10,0.49,-0.98,23.13,3.95,67.99
37.935992,-0.0659,0.4248,0.9136,-0.79,0.43,-0.61,23.13,3.95,67.99
37.996264,-0.0674,0.4263,0.9170,-0.24,0.18,0.00,23.14,3.96,67.99
37.996264,-0.0620,0.4243,0.9111,0.12,0.06,0.37,23.14,3.96,67.99
38.056148,-0.0596,0.4248,0.9038,-0.06,0.12,0.43,23.14,3.96,67.99
38.056148,-0.0566,0.4233,0.9004,-0.24,0.00,0.49,23.14,3.96,67.99
38.057458,-0.0547,0.4204,0.8999,-0.37,0.31,0.49,23.15,3.96,67.99
38.057458,-0.0566,0.4214,0.9033,-0.24,0.49,0.73,23.15,3.96,67.99
38.115921,-0.0503,0.4160,0.9077,-0.67,0.18,0.43,23.15,3.96,67.99
38.115921,-0.0498,0.4150,0.9121,-0.73,0.00,-0.06,23.15,3.96,67.99
38.145983,-0.0527,0.4160,0.9102,-0.24,0.18,-0.24,23.15,3.96,67.99
38.145983,-0.0537,0.4160,0.9102,-0.06,0.18,-0.24,23.15,3.96,67.99
38.176012,-0.0513,0.4150,0.9058,0.00,-0.06,-0.49,23.15,3.96,67.99
38.176012,-0.0557,0.4175,0.9082,-0.31,0.12,-0.98,23.15,3.96,67.99
38.235955,-0.0601,0.4224,0.9097,0.00,0.00,-0.79,23.15,3.96,67.99
38.235955,-0.0620,0.4233,0.9067,0.00,0.06,-0.61,23.15,3.96,67.99
38.265984,-0.0659,0.4253,0.9082,0.00,0.12,-0.31,23.15,3.96,67.99
38.265984,-0.0669,0.4248,0.9087,-0.06,-0.06,0.24,23.16,3.96,67.99
38.326348,-0.0635,0.4224,0.9092,0.00,-0.31,0.55,23.16,3.97,67.99
38.326348,-0.0601,0.4194,0.9087,0.06,-0.24,0.67,23.16,3.97,67.99
38.362621,-0.0576,0.4194,0.9077,0.06,-0.12,0.67,23.16,3.97,67.99
38.362621,-0.0576,0.4204,0.9077,0.31,-0.24,0.98,23.16,3.97,67.99
38.386013,-0.0498,0.4175,0.9048,0.37,-0.31,0.98,23.17,3.96,68.01
38.386013,-0.0488,0.4180,0.9023,0.00,-0.12,0.24,23.17,3.94,68.02
38.446020,-0.0508,0.4194,0.9014,0.00,-0.18,0.00,23.17,3.94,68.02
38.446020,-0.0518,0.4180,0.9053,-0.31,-0.06,-0.06,23.16,3.93,68.01
38.494613,-0.0518,0.4194,0.9072,0.12,0.00,0.00,23.16,3.93,68.01
38.494613,-0.0537,0.4185,0.9141,-0.06,-0.18,-0.24,23.15,3.93,68.01
38.505938,-0.0522,0.4185,0.9150,0.12,-0.79,-0.06,23.15,3.92,68.00
38.505938,-0.0479,0.4146,0.9097,0.18,-0.55,-0.49,23.15,3.91,67.98
38.565988,-0.0542,0.4185,0.9062,0.61,-0.31,-0.73,23.15,3.91,67.97
38.565988,-0.0576,0.4224,0.9004,0.49,-0.24,-0.55,23.16,3.91,67.95
38.596413,-0.0571,0.4248,0.8965,0.24,-0.06,-0.24,23.17,3.91,67.94
38.596413,-0.0571,0.4253,0.8940,0.12,0.24,-0.37,23.17,3.91,67.93
38.626351,-0.0586,0.4248,0.8945,-0.18,0.55,-0.37,23.16,3.92,67.93
38.626351,-0.0610,0.4248,0.9009,-0.67,0.67,0.00,23.15,3.93,67.93
38.686315,-0.0596,0.4219,0.9131,-0.79,0.73,0.43,23.14,3.94,67.94
38.686315,-0.0547,0.4175,0.9243,-0.31,0.12,0.43,23.12,3.95,67.95
38.716438,-0.0547,0.4180,0.9282,0.00,-0.24,0.12,23.12,3.94,67.96
38.716438,-0.0562,0.4219,0.9214,0.98,-0.49,0.61,23.12,3.93,67.96
38.746109,-0.0498,0.4204,0.9072,0.92,-0.85,0.79,23.14,3.91,67.97
38.746109,-0.0444,0.4175,0.8960,0.73,-0.73,0.55,23.15,3.89,67.97
38.806333,-0.0415,0.4150,0.8877,0.43,-0.18,-0.31,23.16,3.88,67.97
38.806333,-0.0459,0.4141,0.8906,-0.31,0.18,-1.04,23.16,3.88,67.95
38.836324,-0.0537,0.4165,0.9004,-0.24,0.67,-1.22,23.15,3.90,67.93
38.836324,-0.0625,0.4189,0.9082,-0.24,0.98,-1.28,23.14,3.93,67.92
38.866361,-0.0630,0.4243,0.9077,0.12,0.43,-0.67,23.13,3.94,67.90
38.866361,-0.0601,0.4243,0.9019,-0.31,0.43,-1.04,23.13,3.96,67.89
38.926461,-0.0649,0.4307,0.8999,-0.12,0.79,-0.55,23.12,3.98,67.87
38.926461,-0.0649,0.4316,0.8989,-0.49,0.49,0.24,23.11,3.99,67.88
38.956291,-0.0576,0.4263,0.9033,-1.16,0.43,0.49,23.09,3.99,67.89
38.956291,-0.0557,0.4253,0.9097,-0.85,0.37,0.73,23.07,4.00,67.90
38.986316,-0.0518,0.4189,0.9194,-0.67,0.00,0.79,23.05,3.99,67.92
38.986316,-0.0474,0.4111,0.9204,-0.24,-0.31,0.31,23.04,3.98,67.93
39.046176,-0.0474,0.4087,0.9131,0.31,-0.24,-0.18,23.03,3.98,67.92
39.046176,-0.0474,0.4097,0.9019,1.04,0.24,-0.55,23.05,3.98,67.91
39.076010,-0.0522,0.4146,0.8970,0.06,0.31,-1.28,23.05,3.99,67.90
39.076010,-0.0596,0.4209,0.9009,-0.31,0.49,-1.40,23.05,4.01,67.87
39.106325,-0.0640,0.4233,0.9058,-0.06,0.67,-1.28,23.04,4.03,67.85
39.106325,-0.0732,0.4302,0.9116,-0.24,0.79,-0.98,23.03,4.06,67.84
39.166322,-0.0747,0.4336,0.9067,0.31,0.43,0.37,23.03,4.07,67.84
39.166322,-0.0679,0.4292,0.9048,-0.06,0.43,1.10,23.03,4.07,67.85
39.196618,-0.0625,0.4243,0.9067,-0.43,0.12,1.16,23.02,4.06,67.87
39.196618,-0.0586,0.4194,0.9111,-0.12,0.18,1.22,23.02,4.05,67.90
39.226516,-0.0557,0.4175,0.9146,0.12,0.18,1.22,23.01,4.05,67.92
39.226516,-0.0508,0.4136,0.9136,0.31,-0.18,1.34,23.02,4.04,67.94
39.286337,-0.0459,0.4111,0.9087,0.43,-0.43,0.98,23.02,4.02,67.96
39.286337,-0.0435,0.4092,0.9058,0.61,-0.06,0.00,23.03,4.01,67.97
39.316089,-0.0493,0.4141,0.9062,0.73,0.31,-0.67,23.04,4.02,67.96
39.316089,-0.0537,0.4170,0.9048,0.55,-0.06,-0.67,23.05,4.02,67.95
39.346120,-0.0518,0.4180,0.9048,-0.06,-0.37,-0.92,23.05,4.03,67.93
39.346120,-0.0557,0.4209,0.9087,0.24,-0.12,-0.98,23.05,4.03,67.91
39.405987,-0.0605,0.4229,0.9116,0.79,-0.06,-1.04,23.12,4.03,67.91
39.405987,-0.0659,0.4297,0.9092,0.85,-0.37,-0.79,23.13,4.03,67.92
39.436998,-0.0649,0.4312,0.9048,0.98,-0.73,-0.24,23.13,4.03,67.92
39.436998,-0.0591,0.4316,0.9023,0.61,-0.85,-0.12,23.13,4.03,67.93
39.466080,-0.0537,0.4302,0.9004,0.73,-0.98,0.18,23.14,4.03,67.93
39.466080,-0.0469,0.4287,0.8975,0.79,-0.67,0.18,23.14,4.03,67.93
39.526605,-0.0479,0.4287,0.8965,0.37,-0.18,0.12,23.15,4.03,67.94
39.526605,-0.0508,0.4263,0.8936,0.18,0.12,0.18,23.15,4.03,67.94
39.556158,-0.0542,0.4229,0.8926,-0.43,0.24,0.12,23.15,4.03,67.95
39.556158,-0.0596,0.4165,0.8989,-0.85,0.37,0.12,23.16,4.02,67.96
39.586145,-0.0630,0.4126,0.9082,-0.73,0.73,0.12,23.16,4.03,67.96
39.586145,-0.0669,0.4106,0.9180,-0.31,0.79,-0.06,23.16,4.03,67.96
39.646009,-0.0703,0.4111,0.9189,0.43,0.37,-0.24,23.16,4.03,67.97
39.646009,-0.0771,0.4185,0.9214,0.43,0.00,0.00,23.16,4.03,67.97
39.675973,-0.0776,0.4243,0.9165,1.16,-0.31,0.73,23.16,4.04,67.97
39.675973,-0.0698,0.4307,0.9038,1.28,-0.55,0.98,23.16,4.04,67.98
39.736024,-0.0596,0.4380,0.8882,1.22,-0.31,1.28,23.16,4.04,67.98
39.736024,-0.0503,0.4395,0.8696,1.16,0.37,1.46,23.18,4.04,68.00
39.766069,-0.0498,0.4404,0.8677,-0.67,1.04,1.40,23.18,4.04,68.03
39.766069,-0.0508,0.4341,0.8838,-2.20,1.34,1.77,23.15,4.05,68.07
39.796360,-0.0464,0.4272,0.9072,-1.95,1.34,2.08,23.10,4.05,68.12
39.796360,-0.0386,0.4185,0.9111,-0.49,1.77,1.59,23.08,4.06,68.16
39.856062,-0.0410,0.4209,0.8931,1.46,2.56,1.28,23.09,4.09,68.20
39.856062,-0.0449,0.4336,0.8403,1.83,3.85,1.28,23.13,4.14,68.25
39.886054,-0.0527,0.4365,0.7993,-1.46,5.86,1.22,23.14,4.21,68.32
39.886054,-0.0820,0.4419,0.8447,-7.51,6.90,1.16,23.04,4.32,68.39
39.916019,-0.0991,0.4429,0.9258,-8.36,5.92,2.99,22.87,4.43,68.48
39.916019,-0.0918,0.4355,1.0063,-8.30,3.30,4.39,22.71,4.48,68.59
39.977132,-0.0723,0.4126,1.0562,-4.70,-3.66,5.31,22.58,4.43,68.69
39.977132,-0.0322,0.3799,1.0107,4.03,-3.91,6.47,22.56,4.30,68.75
40.007414,-0.0098,0.3657,0.9302,0.43,-7.57,1.89,22.65,4.17,68.80
40.007414,-0.0161,0.3945,0.8940,-4.58,-9.22,0.43,22.55,4.00,68.72
40.036276,-0.0210,0.3931,0.9199,-1.22,-4.64,-0.73,22.51,3.88,68.68
40.036276,-0.0518,0.4155,0.9434,-1.04,-6.84,-2.26,22.48,3.79,68.60
40.096132,-0.0713,0.4199,0.9468,-2.14,-10.80,-1.28,22.43,3.64,68.49
40.096132,-0.0605,0.4067,0.9199,0.55,-10.56,-0.37,22.41,3.44,68.39
40.126042,-0.0542,0.3936,0.8706,1.83,-9.16,-1.53,22.44,3.27,68.29
40.126042,-0.0537,0.3906,0.8311,-0.43,-8.48,-2.56,22.44,3.12,68.18
40.156008,-0.0444,0.3848,0.8247,-3.78,-6.10,-3.42,22.38,3.01,68.07
40.156008,-0.0439,0.3872,0.8647,-4.82,-2.93,-4.82,22.29,2.96,67.95
40.216398,-0.0537,0.4048,0.9014,-4.21,-1.46,-5.37,22.19,2.97,67.84
40.216398,-0.0576,0.4229,0.9233,-3.36,-0.98,-4.88,22.11,2.98,67.73
40.246367,-0.0649,0.4331,0.9419,-2.99,-1.65,-4.39,22.03,2.99,67.63
40.246367,-0.0747,0.4424,0.9526,-2.69,-3.36,-2.44,21.97,2.97,67.54
40.276071,-0.0757,0.4443,0.9624,-2.01,-5.07,0.37,21.92,2.90,67.49
40.276071,-0.0620,0.4414,0.9712,-1.65,-6.84,2.56,21.88,2.78,67.47
40.336010,-0.0464,0.4365,0.9771,-1.95,-9.09,4.39,21.84,2.60,67.47
40.336010,-0.0303,0.4302,0.9688,-2.56,-10.74,6.16,21.79,2.37,67.49
40.367071,-0.0249,0.4341,0.9346,1.16,-11.35,7.63,21.77,2.11,67.53
40.367071,-0.0073,0.4224,0.8823,3.05,-10.62,8.42,21.82,1.84,67.59
40.396050,-0.0005,0.4053,0.8696,1.22,-10.01,7.26,21.87,1.59,67.66
40.396050,0.0024,0.3911,0.8740,0.00,-9.16,5.86,21.87,1.36,67.70
40.456021,0.0107,0.3828,0.8745,0.12,-6.84,4.33,21.87,1.17,67.73
40.456021,0.0083,0.3853,0.8779,-0.18,-5.31,3.30,21.87,1.03,67.75
40.486067,0.0166,0.3838,0.8701,-0.61,-4.58,2.75,21.86,0.91,67.76
40.486067,0.0283,0.3774,0.8667,-2.20,-3.36,0.61,21.83,0.82,67.76
40.515957,0.0225,0.3804,0.8740,-3.60,-2.20,-1.46,21.77,0.78,67.73
40.515957,0.0151,0.3828,0.8955,-5.37,-2.38,-2.50,21.67,0.76,67.67
40.576053,0.0156,0.3799,0.9302,-5.98,-2.75,-3.17,21.56,0.74,67.59
40.576053,0.0161,0.3789,0.9517,-5.19,-3.30,-4.03,21.43,0.70,67.50
40.606375,0.0127,0.3857,0.9580,-3.97,-3.97,-4.58,21.34,0.67,67.39
40.606375,0.0132,0.3921,0.9551,-2.81,-4.46,-4.58,21.28,0.63,67.27
40.637148,0.0098,0.4009,0.9526,-1.77,-5.19,-4.15,21.23,0.57,67.15
40.637148,0.0098,0.4072,0.9448,-0.98,-5.92,-3.72,21.20,0.49,67.03
40.695961,0.0024,0.4136,0.9375,-0.43,-6.10,-3.60,21.18,0.41,66.92
40.695961,-0.0073,0.4185,0.9258,0.12,-6.65,-2.38,21.18,0.31,66.81
40.726063,-0.0117,0.4136,0.9199,-0.55,-7.20,-1.04,21.18,0.20,66.73
40.726063,-0.0054,0.4043,0.9175,-0.85,-7.57,-0.12,21.15,0.07,66.65
40.755997,0.0024,0.3965,0.9150,-0.67,-6.59,0.06,21.14,-0.07,66.60
40.755997,0.0044,0.3970,0.9189,-0.37,-6.16,0.31,21.12,-0.19,66.55
40.816040,0.0127,0.3960,0.9087,-0.06,-5.80,0.85,21.12,-0.31,66.52
40.816040,0.0171,0.3945,0.9126,-0.61,-5.00,0.55,21.10,-0.41,66.49
40.845998,0.0166,0.3936,0.9302,-0.55,-5.19,0.55,21.09,-0.51,66.46
40.845998,0.0205,0.3921,0.9370,0.43,-5.25,0.79,21.08,-0.62,66.43
40.876018,0.0303,0.3901,0.9312,1.53,-5.07,0.79,21.10,-0.72,66.41
40.876018,0.0410,0.3931,0.9165,1.65,-5.31,0.31,21.13,-0.82,66.37
40.936279,0.0479,0.3887,0.9224,0.55,-4.58,-0.73,21.16,-0.91,66.33
40.936279,0.0469,0.3755,0.9751,-1.10,-4.70,-2.81,21.15,-0.98,66.26
40.966025,0.0171,0.3687,1.0825,-3.66,-6.77,-4.33,21.09,-1.05,66.15
40.966025,0.0039,0.3525,1.1157,-0.61,-13.92,-4.76,21.07,-1.21,65.98
40.996005,0.0166,0.3618,1.0166,10.44,-16.54,-1.53,21.14,-1.48,65.79
40.996005,0.0488,0.3506,0.8418,18.07,-8.61,-0.98,21.48,-1.72,65.69
41.055963,0.0347,0.3867,0.7954,12.63,-4.70,-2.50,21.79,-1.81,65.60
41.055963,0.0239,0.4189,0.8325,5.55,-7.32,-1.28,21.96,-1.90,65.51
41.085992,0.0371,0.4482,0.8716,7.02,-10.07,1.77,22.08,-2.07,65.45
41.085992,0.0728,0.4370,0.8740,3.91,-8.85,-0.67,22.20,-2.26,65.40
41.146038,0.0732,0.4502,0.8281,6.77,-4.76,-3.36,22.31,-2.35,65.31
41.146038,0.0566,0.5229,0.8022,16.17,-18.62,2.75,22.52,-2.60,65.14
41.175977,0.0215,0.5684,0.8145,22.77,-13.24,21.67,22.91,-2.88,65.32
41.175977,0.0474,0.4053,0.7500,5.62,3.05,26.98,23.20,-3.18,65.83
41.206223,0.0571,0.4990,0.8271,-30.27,5.25,25.88,22.86,-3.26,66.34
41.206223,0.1035,0.4438,0.8403,-27.16,8.85,32.47,22.26,-3.38,66.94
41.266027,0.1035,0.3975,0.8960,-33.45,12.51,28.26,21.57,-3.43,67.58
41.266027,0.0898,0.3813,0.9370,-32.29,15.08,28.20,20.87,-3.38,68.20
41.296092,0.0942,0.3364,0.9839,-33.75,13.92,26.98,20.15,-3.32,68.82
41.296092,0.1118,0.3145,1.0210,-30.88,10.50,21.06,19.47,-3.27,69.35
41.326014,0.1255,0.2920,1.0459,-22.28,9.34,17.21,18.90,-3.22,69.77
41.326014,0.1274,0.2671,1.0503,-18.49,8.30,11.05,18.47,-3.14,70.10
41.385996,0.1113,0.2939,1.0317,-7.87,5.00,8.48,18.20,-3.08,70.31
41.385996,0.0991,0.3042,0.9834,-0.43,1.59,9.40,18.12,-3.10,70.51
41.416015,0.0908,0.3027,0.9409,3.42,1.22,6.10,18.12,-3.14,70.67
41.416015,0.0850,0.3384,0.9121,8.61,4.88,2.87,18.24,-3.11,70.77
41.446994,0.0112,0.3936,0.8398,12.15,18.37,-24.96,18.68,-2.74,70.34
41.446994,-0.0210,0.4272,0.9141,26.43,6.16,-4.88,18.93,-2.38,70.17
41.506310,-0.0010,0.3960,0.8853,22.71,-1.28,-0.43,19.44,-2.35,70.15
41.506310,0.0146,0.3872,0.8838,24.90,-5.49,2.56,19.90,-2.43,70.15
41.536239,0.0205,0.3730,0.8804,20.39,0.12,1.89,20.36,-2.51,70.17
41.536239,0.0059,0.3813,0.9189,19.17,8.30,0.61,20.74,-2.43,70.22
41.565991,0.0176,0.3721,0.9390,12.33,11.72,-1.46,21.07,-2.24,70.27
41.565991,0.0371,0.3755,0.9375,4.70,14.95,-3.17,21.29,-1.98,70.35
41.625983,0.0117,0.3921,0.9521,5.74,17.03,-5.98,21.36,-1.64,70.38
41.625983,0.0005,0.4019,0.9414,6.04,17.58,-4.70,21.51,-1.29,70.41
41.655992,-0.0981,0.4204,0.8501,7.14,28.87,-6.90,21.57,-0.87,70.47
41.655992,-0.0781,0.5732,0.8491,-20.87,12.70,-12.15,21.66,-0.37,70.42
41.685948,0.0288,0.4019,0.9761,7.08,-7.69,4.21,21.34,-0.42,70.38
41.685948,0.0381,0.3857,1.0068,-10.01,7.45,1.10,21.38,-0.43,70.44
41.745968,0.0029,0.3706,0.9795,7.45,20.63,1.40,21.32,-0.15,70.58
41.745968,0.0835,0.3389,0.7759,-48.65,23.38,4.39,21.25,0.20,70.78
41.775965,0.1655,0.3105,1.0464,20.02,30.15,-43.82,20.36,1.00,70.61
41.775965,0.1265,0.3159,0.9150,93.02,20.08,-35.40,21.79,1.71,70.07
41.806269,0.0625,0.5625,0.9575,83.25,7.81,-60.91,23.76,2.34,69.42
41.806269,0.0386,0.5454,0.7773,12.21,-10.13,-114.81,24.67,3.07,67.67
41.866325,-0.0513,0.4580,0.8008,-33.45,2.75,-112.18,24.19,3.99,65.54
41.866325,-0.1699,0.3989,0.9194,-11.84,-2.26,7.14,23.51,4.44,64.67
41.896356,-0.0625,0.4463,0.8892,49.44,-16.36,49.93,24.11,3.94,65.28
41.896356,-0.0264,0.4438,0.8525,28.02,-10.93,27.47,24.94,3.36,65.79
41.926315,-0.0171,0.4727,0.8618,27.16,-5.92,23.93,25.48,3.00,66.18
41.926315,-0.0303,0.5054,0.8081,5.98,-6.65,22.34,25.94,2.68,66.53
41.986448,-0.0249,0.5034,0.8403,-45.65,-8.61,24.54,25.44,2.33,66.86
41.986448,-0.0298,0.4604,0.8721,-61.34,-5.55,26.92,24.32,1.96,67.25
42.016375,-0.0298,0.4424,0.9106,-57.74,-1.16,26.61,23.13,1.68,67.69
42.016375,0.1611,0.3462,0.8994,-41.56,4.33,-14.89,22.14,1.52,68.03
42.046738,-0.0469,0.3657,0.8306,-54.20,12.82,-51.94,21.07,2.09,67.34
42.046738,-0.0986,0.3892,0.8618,-38.21,6.29,-22.52,20.15,2.52,66.74
42.106290,-0.0854,0.3730,0.8696,-31.07,5.00,-8.24,19.50,2.71,66.51
42.106290,-0.0693,0.3589,0.9229,-18.55,6.65,1.28,18.94,2.85,66.47
42.136291,-0.0454,0.3716,0.9434,6.84,6.59,6.23,18.85,2.95,66.61
42.136291,-0.0430,0.3862,0.9287,22.46,2.08,2.32,19.20,3.00,66.73
42.166113,-0.0244,0.3320,0.9370,-15.20,-3.11,-9.64,19.20,3.03,66.66
42.166113,0.0127,0.3159,0.8862,14.89,3.36,-21.97,19.25,3.15,66.37
42.226293,0.0142,0.3242,0.8906,40.41,2.75,-36.62,19.79,3.42,65.82
42.226293,-0.0024,0.4126,0.9736,67.02,-0.49,-53.22,20.92,3.76,65.04
42.256313,-0.0615,0.5542,0.8979,-9.58,-17.58,-68.30,21.58,4.02,63.69
42.256313,-0.0693,0.4678,0.9473,-38.70,-5.13,-46.45,20.92,4.22,62.57
42.286239,-0.0391,0.4146,0.9653,-60.06,8.79,-57.56,19.88,4.64,61.66
42.286239,-0.0034,0.4155,0.9951,-99.24,19.53,-87.04,18.23,5.43,60.44
42.346288,-0.0537,0.3213,0.9854,-108.03,20.08,-105.04,15.94,6.44,58.74
42.346288,-0.1294,0.2446,0.9961,-96.31,7.75,-95.76,13.63,7.22,56.78
42.376290,-0.1343,0.1709,1.0591,-61.46,3.11,-72.33,11.90,7.72,55.22
42.376290,-0.1274,0.2163,1.1357,-55.36,14.53,-56.58,10.63,8.15,53.98
42.406656,-0.1274,0.2139,1.1401,-65.25,41.50,-45.47,9.34,8.92,53.13
42.406656,-0.1084,0.1948,1.1729,-117.86,57.13,-60.18,7.41,10.05,52.27
42.466342,-0.1484,0.1646,1.1689,-146.00,73.55,-69.95,4.41,11.57,51.09
42.466342,-0.1812,0.1450,1.0840,-103.39,68.18,-62.38,1.66,13.09,49.84
42.496295,-0.2246,0.0850,1.0244,-62.01,57.92,-51.33,-0.24,14.40,48.72
42.496295,-0.2734,0.0581,1.0146,-10.56,48.03,-37.48,-1.13,15.45,47.83
42.556226,-0.3184,0.0537,0.9966,9.83,44.86,-26.92,-1.23,16.37,47.19
42.556226,-0.3599,0.0742,0.9473,-3.42,45.47,-26.86,-1.27,17.27,46.66
42.586167,-0.4326,0.1138,0.8613,-33.20,45.78,-34.18,-1.83,18.19,46.01
42.586167,-0.5244,0.0986,0.7485,-40.28,31.56,-30.03,-2.88,18.98,45.29
42.616097,-0.5591,-0.0557,0.6914,-10.25,2.50,-20.94,-3.55,19.30,44.76
42.616097,-0.5933,-0.2227,0.6968,-14.22,-19.53,-13.43,-3.80,19.07,44.40
42.676001,-0.5474,-0.2646,0.7173,-55.36,-33.39,-18.25,-4.59,18.53,44.16
42.676001,-0.5205,-0.1675,0.6987,-71.90,-48.95,-19.41,-6.09,17.67,43.77
42.707624,-0.4775,-0.0459,0.6167,-12.27,-76.66,8.06,-7.04,16.42,43.75
42.707624,-0.3657,0.0454,0.5952,71.11,-102.11,53.47,-6.11,14.65,44.59
42.737618,-0.2295,0.0239,0.6294,93.44,-113.59,70.01,-4.02,12.56,46.08
42.737618,-0.2002,-0.1094,0.8291,59.27,-107.60,64.45,-2.16,10.35,47.50
42.796127,-0.1367,-0.0864,1.0679,-3.42,-81.36,51.51,-1.49,8.46,48.71
42.796127,-0.0132,0.1025,1.0498,-35.10,-49.32,36.50,-1.84,7.19,49.57
42.826018,0.1416,0.2397,0.8940,-27.10,-42.97,24.66,-2.49,6.33,50.20
42.826018,0.1812,0.1675,0.9409,19.59,-56.46,12.45,-2.55,5.35,50.55
42.856116,0.1699,-0.0522,1.1875,70.68,-63.60,14.28,-1.54,4.10,50.84
42.856116,0.1470,-0.1919,1.4771,76.48,-40.47,10.68,0.02,3.02,51.08
42.916060,0.1538,-0.2197,1.5840,23.50,12.27,-4.58,1.10,2.74,51.16
42.916060,0.1948,-0.1108,1.3438,-48.16,56.34,-26.61,0.70,3.53,50.84
42.946077,0.1479,-0.0806,1.1108,-32.84,56.88,-31.68,-0.28,4.74,50.26
42.946077,0.0469,-0.1006,1.1543,27.59,49.74,-16.66,-0.36,5.79,49.76
42.976027,0.0020,-0.0703,1.1211,69.52,54.14,17.40,0.69,6.81,49.81
42.976027,-0.0020,-0.0615,1.0093,55.05,61.10,28.56,2.09,7.95,50.39
43.036281,-0.0181,-0.0591,0.8687,24.05,54.75,13.12,2.89,9.10,50.91
43.036281,-0.0786,-0.0884,0.8711,35.40,36.01,8.85,3.47,9.98,51.17
43.066003,-0.1006,-0.0752,0.9058,45.84,23.93,12.08,4.35,10.54,51.44
43.066003,-0.0903,0.0381,0.8638,25.88,19.59,6.41,5.15,10.93,51.71
43.095967,-0.1030,0.2119,0.7451,27.04,5.37,-11.35,5.58,11.21,51.66
43.095967,-0.1807,0.2285,0.7588,67.38,-16.24,-7.32,6.51,11.10,51.42
43.156058,-0.2197,0.1934,0.8379,66.96,-20.81,3.78,7.87,10.71,51.32
43.156058,-0.2041,0.2388,0.9473,13.61,-11.84,10.86,8.83,10.31,51.42
43.186044,-0.1650,0.7173,1.3271,-112.18,44.13,66.10,7.87,10.51,52.08
43.186044,-0.1060,0.1543,0.7437,75.99,27.22,26.86,7.28,11.30,53.72
43.216052,-0.3071,0.2227,1.0815,-1.95,37.17,21.36,8.46,11.69,53.81
43.216052,-0.3330,-0.0991,0.8042,38.27,-5.49,-15.81,8.61,12.07,53.96
43.276085,-0.3286,0.1714,0.7534,127.32,-92.22,-53.28,10.29,11.18,53.04
43.276085,-0.2383,0.3701,0.8853,192.38,-100.22,13.31,13.12,9.35,52.23
43.306373,-0.2202,0.3794,0.9146,145.02,-61.89,40.47,16.56,7.68,52.39
43.306373,-0.1519,0.4360,0.7798,95.58,-60.49,28.08,18.96,6.36,52.72
43.335976,-0.1870,0.4668,0.8306,56.58,-56.76,24.84,20.42,5.05,52.68
43.335976,-0.1260,0.4336,0.9038,18.43,-36.25,25.63,21.15,4.00,52.86
43.395964,-0.1006,0.4468,0.9736,0.55,-22.89,15.99,21.28,3.31,53.00
43.395964,-0.0806,0.4722,0.9800,8.12,-9.46,13.92,21.37,2.92,53.16
43.426074,-0.0562,0.4849,0.9253,17.82,-2.01,14.65,21.65,2.71,53.38
43.426074,-0.0234,0.4790,0.8906,9.40,0.67,11.47,21.97,2.60,53.61
43.457122,-0.0127,0.4692,0.8467,-12.88,1.04,9.95,21.91,2.54,53.81
43.457122,-0.0254,0.3945,0.8911,-18.31,2.81,14.77,21.57,2.48,54.04
43.516087,0.0332,0.4233,0.7544,-0.67,19.47,2.14,21.33,2.55,54.35
43.516087,-0.0430,0.4531,0.9463,24.72,14.59,16.24,21.58,2.81,54.62
43.546031,-0.0303,0.4897,0.9409,19.96,16.66,42.79,22.06,2.80,55.28
43.546031,-0.0503,0.3726,0.9849,15.62,11.54,44.62,22.46,2.74,56.30
43.575998,-0.0220,0.4106,0.9619,-8.85,7.45,16.24,22.52,2.71,56.88
43.575998,-0.0400,0.4121,1.0015,-2.69,-6.84,7.02,22.37,2.64,57.09
43.635968,-0.0542,0.3984,0.9746,14.59,-21.97,8.06,22.50,2.27,57.07
43.635968,-0.0161,0.4375,0.9058,17.46,-20.81,10.13,22.88,1.78,57.07
43.666035,0.0024,0.4238,0.9272,20.32,-13.43,6.71,23.24,1.38,57.08
43.666035,0.0015,0.4199,0.9482,17.76,-6.47,-2.56,23.64,1.21,57.05
43.696021,0.0146,0.4722,0.8389,26.79,-7.51,-9.58,24.10,1.13,56.86
43.696021,0.0073,0.4814,0.7969,18.92,-1.04,-12.63,24.58,1.15,56.62
43.756030,0.0371,0.5278,0.8296,0.98,2.26,-17.46,24.79,1.29,56.35
43.756030,0.0020,0.5396,0.8896,-46.51,16.78,-13.00,24.24,1.64,56.22
43.785955,-0.0200,0.4121,0.9067,-72.20,7.45,-33.45,22.97,2.07,55.95
43.785955,-0.0249,0.3765,0.9028,-89.11,-2.75,-65.55,21.32,2.50,54.99
43.816039,-0.1143,0.3398,0.9609,-84.96,-5.07,-68.24,19.43,2.95,53.61
43.816039,-0.1030,0.3379,0.9688,-40.95,-1.77,-28.38,18.20,3.18,52.75
43.876018,-0.1118,0.2925,0.9834,-12.15,1.53,-11.96,17.67,3.31,52.38
43.876018,-0.0957,0.3267,0.9810,-5.92,9.28,1.53,17.55,3.44,52.35
43.906329,-0.0708,0.3315,0.9536,-10.99,11.96,8.97,17.39,3.61,52.54
43.906329,-0.0571,0.3418,0.9326,-16.66,8.06,7.20,17.12,3.76,52.76
43.966025,-0.0664,0.2900,0.9575,-5.00,1.34,10.44,16.81,3.78,52.97
43.966025,-0.0396,0.3257,0.9141,-39.37,1.59,-3.05,16.40,3.78,53.02
43.996025,-0.0483,0.3130,0.9478,-26.86,-0.85,-2.87,15.69,3.81,52.96
43.996025,-0.0635,0.3242,0.9746,-13.00,-4.46,3.91,15.29,3.77,52.94
44.025963,-0.0503,0.3276,0.9644,0.00,-9.95,9.40,15.17,3.59,53.05
44.025963,-0.0332,0.3267,0.9644,14.71,-10.56,8.91,15.35,3.32,53.16
44.086399,-0.0532,0.3228,0.9697,20.39,-10.62,14.83,15.71,3.06,53.32
44.086399,-0.0376,0.3174,0.9478,23.38,-14.77,15.93,16.18,2.72,53.56
44.116055,-0.0244,0.3335,0.9204,15.56,-16.11,9.52,16.57,2.35,53.70
44.116055,-0.0063,0.3350,0.9194,9.64,-10.74,2.99,16.81,2.05,53.73
44.145938,-0.0205,0.3262,0.9429,8.18,-7.14,0.24,16.99,1.87,53.70
44.145938,-0.0220,0.3369,0.9453,5.00,-3.91,1.59,17.13,1.76,53.68
44.206329,-0.0220,0.3477,0.9336,0.24,-2.01,0.24,17.17,1.70,53.68
44.206329,-0.0288,0.3511,0.9370,2.44,-3.42,0.67,17.19,1.65,53.67
44.236291,-0.0386,0.3525,0.9229,6.29,-4.39,2.01,17.28,1.57,53.68
44.236291,-0.0283,0.3467,0.9238,6.04,-3.42,5.19,17.41,1.47,53.72
44.266053,-0.0171,0.3315,0.9370,8.24,-1.59,9.58,17.55,1.37,53.84
44.266053,-0.0264,0.3203,0.9819,12.82,-2.32,13.73,17.76,1.26,54.05
44.325969,-0.0156,0.3491,0.9761,20.14,-8.91,18.74,18.10,1.05,54.33
44.325969,0.0044,0.3613,0.9614,20.81,-12.82,15.69,18.53,0.71,54.59
44.356011,0.0000,0.3667,0.9561,18.37,-11.54,9.22,18.91,0.40,54.73
44.356011,0.0146,0.3843,0.9399,13.73,-10.25,6.16,19.25,0.13,54.79
44.385932,-0.0063,0.3740,0.9434,-11.54,5.37,1.53,19.19,0.13,54.87
44.385932,-0.0015,0.3657,0.9258,-9.58,2.14,4.09,19.00,0.16,54.93
44.446013,0.0103,0.3506,0.9048,-6.90,1.16,1.59,18.80,0.19,55.01
44.446013,0.0117,0.3706,0.8936,1.95,-3.23,1.04,18.78,0.15,55.02
44.475978,0.0171,0.3887,0.8848,3.54,-3.30,-2.87,18.86,0.08,54.98
44.475978,0.0063,0.3828,0.8926,3.36,1.04,-3.66,18.92,0.09,54.90
44.506315,0.0059,0.3818,0.8970,5.49,0.98,-2.50,19.01,0.13,54.85
44.506315,0.0127,0.3848,0.9106,7.57,0.06,-1.16,19.15,0.15,54.82
44.565996,0.0000,0.3765,0.9492,9.64,-0.31,2.08,19.32,0.14,54.83
44.565996,-0.0039,0.3750,0.9629,9.83,-0.85,5.19,19.52,0.11,54.90
44.596343,0.0059,0.3804,0.9736,8.54,-1.53,6.23,19.69,0.04,55.00
44.596343,0.0059,0.3760,0.9941,13.31,-2.56,7.57,19.91,-0.05,55.11
44.626349,0.0181,0.3906,0.9609,15.50,-1.34,7.32,20.20,-0.15,55.24
44.626349,0.0317,0.4155,0.9390,10.99,2.69,2.32,20.46,-0.17,55.33
44.686307,0.0225,0.4204,0.9380,10.01,5.68,1.71,20.68,-0.10,55.39
44.686307,0.0073,0.4136,0.9526,3.91,8.97,4.46,20.82,0.01,55.50
44.716330,0.0044,0.4092,0.9175,-2.62,10.86,7.20,20.82,0.16,55.70
44.716330,0.0166,0.3965,0.8691,-7.51,8.18,6.65,20.71,0.29,55.90
44.746307,0.0127,0.3755,0.8706,-7.69,2.26,4.70,20.55,0.34,56.05
44.746307,0.0112,0.3706,0.8984,-6.29,-3.17,3.97,20.41,0.29,56.12
44.806708,0.0059,0.3726,0.9189,-7.81,-2.62,3.48,20.27,0.20,56.16
44.806708,0.0098,0.3770,0.9224,-9.34,2.69,2.87,20.10,0.18,56.22
44.836632,0.0098,0.3794,0.9238,-12.45,8.61,2.56,19.87,0.27,56.31
44.836632,0.0068,0.3853,0.9087,-10.31,11.29,4.64,19.64,0.43,56.45
44.866317,-0.0010,0.3823,0.8979,-10.99,13.98,6.77,19.42,0.63,56.65
44.866317,0.0000,0.3765,0.8975,-4.94,13.61,6.10,19.28,0.83,56.88
44.926433,-0.0015,0.3784,0.9150,-5.19,10.50,2.08,19.19,1.03,57.04
44.926433,-0.0132,0.3853,0.9282,-8.36,6.29,-1.40,19.05,1.19,57.10
44.956339,-0.0254,0.3882,0.9365,-7.87,3.30,-1.53,18.88,1.29,57.10
44.956339,-0.0278,0.3774,0.9360,-3.97,3.91,1.10,18.75,1.35,57.12
44.986290,-0.0249,0.3682,0.9365,-0.85,4.88,3.66,18.72,1.42,57.20
44.986290,-0.0234,0.3687,0.9321,0.73,5.19,3.42,18.72,1.49,57.30
45.045988,-0.0234,0.3687,0.9248,3.11,5.62,3.17,18.76,1.57,57.40
45.045988,-0.0181,0.3687,0.9209,3.72,4.88,3.72,18.84,1.64,57.50
45.075958,-0.0190,0.3740,0.9224,2.69,1.95,3.23,18.91,1.68,57.59
45.075958,-0.0181,0.3721,0.9238,1.77,0.92,2.32,18.95,1.69,57.65
45.106319,-0.0146,0.3755,0.9238,2.26,1.65,1.89,19.00,1.69,57.70
45.106319,-0.0200,0.3740,0.9209,3.85,1.34,2.38,19.06,1.71,57.75
45.167020,-0.0107,0.3677,0.9185,3.17,0.73,2.44,19.14,1.71,57.80
45.167020,-0.0151,0.3735,0.9253,2.08,0.31,1.71,19.18,1.70,57.85
45.195985,-0.0122,0.3745,0.9302,2.20,-0.31,2.26,19.23,1.69,57.88
45.195985,-0.0088,0.3804,0.9336,2.38,-1.16,0.85,19.28,1.66,57.91
45.256012,-0.0093,0.3862,0.9326,5.37,-4.52,1.83,19.35,1.60,57.91
45.256012,-0.0063,0.3892,0.9292,7.93,-5.80,5.19,19.49,1.47,57.94
45.286015,-0.0044,0.3911,0.9375,9.40,-4.03,8.67,19.67,1.32,58.04
45.286015,-0.0068,0.3931,0.9473,9.22,-0.31,11.05,19.86,1.20,58.21
45.316052,-0.0127,0.3975,0.9487,7.87,6.47,13.18,20.03,1.16,58.45
45.316052,0.0908,0.3228,0.8511,-10.31,7.51,-9.95,20.15,1.27,58.71
45.376115,-0.0259,0.4136,0.9077,-10.74,15.56,-9.52,19.80,1.69,58.51
45.376115,-0.0181,0.3794,0.8906,0.67,8.73,-7.45,19.78,1.94,58.45
45.406321,-0.0288,0.3848,0.8999,-6.47,5.92,-11.47,19.69,2.16,58.32
45.406321,-0.0386,0.3794,0.9165,-2.01,-1.53,-10.19,19.59,2.28,58.12
45.436353,-0.0586,0.3774,0.9141,5.25,-5.37,-3.42,19.62,2.25,57.96
45.436353,-0.0176,0.3931,0.9092,12.08,-7.45,1.28,19.83,2.10,57.93
45.495988,-0.0098,0.3843,0.9365,15.14,-6.04,1.04,20.09,1.97,57.89
45.495988,-0.0176,0.3916,0.9277,15.38,-4.15,2.32,20.40,1.86,57.88
45.526033,-0.0161,0.4248,0.9375,31.25,0.92,10.99,20.87,1.79,58.01
45.526033,-0.0137,0.4014,0.9287,30.21,1.59,10.74,21.51,1.73,58.22
45.555983,-0.0176,0.4131,0.9131,25.57,4.58,11.23,22.07,1.70,58.44
45.555983,-0.0234,0.4238,0.8950,18.43,5.62,8.97,22.51,1.72,58.68
45.616062,-0.0166,0.4321,0.8877,10.56,2.01,5.68,22.81,1.73,58.85
45.616062,-0.0034,0.4185,0.8735,-2.26,-4.82,-3.17,22.90,1.69,58.87
45.646269,-0.0039,0.4170,0.8911,-10.93,-9.03,-11.96,22.74,1.62,58.65
45.646269,-0.0010,0.4233,0.8984,-20.08,-8.36,-19.59,22.43,1.59,58.29
45.676347,-0.0029,0.4248,0.8672,-33.51,-4.46,-31.43,21.85,1.69,57.77
45.676347,-0.0317,0.4424,0.8911,-23.44,-9.77,-23.80,21.20,1.80,57.16
45.737770,-0.0312,0.3901,0.9307,-15.62,-7.69,-14.59,20.84,1.77,56.75
45.737770,-0.0396,0.4072,0.9502,-17.09,-3.72,-9.16,20.50,1.78,56.48
45.766359,-0.0283,0.3901,0.9438,0.49,-1.71,-0.06,20.37,1.75,56.41
45.766359,-0.0308,0.3848,0.9316,-3.60,2.81,-0.18,20.35,1.76,56.41
45.796390,-0.0371,0.3838,0.9321,-8.30,0.92,1.34,20.22,1.80,56.43
45.796390,-0.0425,0.3784,0.9321,-9.70,-1.16,4.03,20.04,1.76,56.48
45.856322,-0.0288,0.3818,0.9209,-12.08,-4.27,4.15,19.83,1.68,56.54
45.856322,-0.0278,0.3853,0.9365,-14.28,-2.38,5.98,19.54,1.59,56.62
45.886764,-0.0166,0.3984,0.9497,-8.06,-1.34,5.62,19.31,1.51,56.71
45.886764,-0.0151,0.3896,0.9438,1.89,-1.89,8.54,19.26,1.43,56.83
45.916281,0.0000,0.4023,0.9272,3.54,-4.27,8.97,19.32,1.31,56.98
45.916281,-0.0005,0.3662,0.9316,4.27,-5.43,6.77,19.43,1.15,57.10
45.976325,0.0034,0.3618,0.9219,-4.88,-4.46,1.04,19.41,1.03,57.13
45.976325,-0.0020,0.3633,0.9224,-6.35,-3.05,-1.53,19.29,0.97,57.09
46.006896,-0.0190,0.3374,0.9272,-6.84,-2.62,-2.87,19.15,0.93,57.03
46.006896,-0.0015,0.4019,0.9102,-14.28,-0.49,-1.71,18.93,0.92,56.96
46.036588,-0.0015,0.3760,0.9116,-11.72,-0.92,-1.71,18.68,0.92,56.93
46.036588,-0.0088,0.3657,0.9136,-12.57,0.06,-2.62,18.44,0.92,56.88
46.096252,-0.0098,0.3633,0.9258,-11.17,1.71,-0.85,18.18,0.96,56.85
46.096252,-0.0093,0.3613,0.9429,-5.55,2.56,1.22,18.03,0.99,56.87
46.126393,-0.0083,0.3506,0.9429,-4.21,3.72,2.26,17.95,1.04,56.93
46.126393,-0.0029,0.3564,0.9346,-8.73,3.91,1.46,17.81,1.11,57.00
46.156127,-0.0054,0.3574,0.9326,-7.63,2.69,0.92,17.64,1.16,57.04
46.156127,-0.0112,0.3574,0.9321,-3.11,1.16,1.77,17.54,1.19,57.07
46.216302,-0.0098,0.3550,0.9292,-2.56,1.04,2.08,17.48,1.19,57.12
46.216302,-0.0107,0.3477,0.9355,-1.16,1.22,1.71,17.45,1.20,57.16
46.246356,-0.0093,0.3496,0.9331,-0.55,-0.18,1.46,17.44,1.20,57.19
46.246356,-0.0093,0.3447,0.9375,-1.28,-0.85,0.85,17.42,1.18,57.21
46.276330,-0.0088,0.3457,0.9390,-1.34,-0.73,1.34,17.39,1.15,57.23
46.276330,-0.0054,0.3447,0.9409,-1.22,0.61,0.73,17.36,1.15,57.24
46.336358,-0.0088,0.3481,0.9404,0.00,0.61,1.22,17.35,1.15,57.26
46.336358,-0.0063,0.3486,0.9414,2.38,-0.18,2.14,17.37,1.15,57.30
46.366203,-0.0005,0.3486,0.9375,2.62,-2.01,0.79,17.44,1.12,57.32
46.366203,-0.0039,0.3560,0.9458,0.92,-3.36,0.61,17.47,1.05,57.31
46.396353,0.0044,0.3633,0.9390,0.79,-2.69,1.04,17.50,0.99,57.31
46.396353,0.0015,0.3535,0.9346,0.12,-2.62,-0.37,17.50,0.93,57.30
46.456383,-0.0063,0.3496,0.9390,0.85,0.43,1.16,17.51,0.91,57.29
46.456383,-0.0093,0.3433,0.9443,0.85,4.39,3.42,17.53,0.94,57.36
46.486289,-0.0044,0.3506,0.9331,-0.55,3.42,2.08,17.53,1.01,57.44
46.486289,-0.0078,0.3467,0.9355,-1.46,2.32,1.34,17.52,1.04,57.49
46.516364,-0.0117,0.3433,0.9443,-1.04,2.62,1.65,17.49,1.08,57.53
46.516364,0.0015,0.3809,0.9326,2.38,4.09,0.67,17.59,1.10,57.57
46.576315,-0.0156,0.3486,0.9414,0.49,5.55,3.85,17.57,1.19,57.67
46.576315,-0.0166,0.3330,0.9233,5.43,1.71,3.72,17.66,1.22,57.76
46.606629,-0.0181,0.3350,0.9238,2.50,-0.06,5.49,17.72,1.22,57.86
46.606629,0.0005,0.3721,0.9292,1.46,-1.40,3.91,17.76,1.17,57.93
46.667487,-0.0024,0.3628,0.9385,0.49,0.37,1.59,17.78,1.14,57.98
46.667487,-0.0015,0.3623,0.9458,-2.99,3.85,0.61,17.76,1.18,58.01
46.696303,-0.0073,0.3594,0.9365,-4.76,4.94,0.24,17.68,1.26,58.05
46.696303,-0.0103,0.3530,0.9316,-2.75,4.09,0.85,17.61,1.34,58.09
46.726241,-0.0122,0.3496,0.9341,-4.52,3.66,0.31,17.53,1.41,58.12
46.726241,-0.0171,0.3398,0.9429,-4.70,3.05,0.24,17.44,1.47,58.15
46.786298,-0.0215,0.3403,0.9429,-2.87,2.08,1.22,17.36,1.52,58.18
46.786298,-0.0176,0.3491,0.9453,-1.28,2.20,3.11,17.33,1.54,58.23
46.816312,-0.0146,0.3506,0.9429,-0.73,1.89,4.09,17.30,1.55,58.32
46.816312,-0.0142,0.3452,0.9395,0.73,0.55,4.03,17.31,1.55,58.40
46.846373,-0.0171,0.3496,0.9268,4.46,-0.49,4.21,17.37,1.52,58.48
46.846373,-0.0181,0.3521,0.8936,6.29,0.00,4.15,17.49,1.48,58.56
46.906672,-0.0186,0.3657,0.8813,5.98,0.79,4.33,17.61,1.47,58.64
46.906672,-0.0156,0.3711,0.8950,7.32,1.40,5.07,17.74,1.46,58.74
46.936306,-0.0107,0.3730,0.9160,5.92,3.17,6.23,17.89,1.46,58.86
46.936306,-0.0146,0.3643,0.9385,3.17,4.33,8.61,17.98,1.49,59.02
46.967301,-0.0098,0.3647,0.9502,3.11,2.38,10.31,18.05,1.48,59.23
46.967301,-0.0044,0.3555,0.9590,3.05,0.00,8.42,18.11,1.44,59.43
47.026300,-0.0020,0.3433,0.9600,2.20,0.00,4.94,18.16,1.40,59.55
47.026300,-0.0024,0.3428,0.9570,3.05,0.55,3.85,18.22,1.37,59.62
47.056298,-0.0005,0.3550,0.9551,3.66,0.24,1.77,18.29,1.36,59.68
47.056298,-0.0034,0.3584,0.9531,2.93,0.00,0.00,18.36,1.36,59.69
47.086392,-0.0088,0.3594,0.9497,0.24,0.85,-0.37,18.39,1.37,59.69
47.086392,-0.0122,0.3618,0.9419,0.18,2.01,0.61,18.39,1.40,59.71
47.146300,-0.0127,0.3647,0.9307,0.31,1.53,0.92,18.40,1.43,59.73
47.146300,-0.0117,0.3687,0.9287,-0.49,0.79,1.16,18.40,1.44,59.76
47.176342,-0.0107,0.3667,0.9253,-1.95,0.92,0.49,18.37,1.45,59.78
47.176342,-0.0161,0.3633,0.9307,-1.40,1.65,1.28,18.33,1.47,59.80
47.206941,-0.0107,0.3628,0.9336,-0.43,2.08,1.95,18.32,1.49,59.85
47.206941,-0.0137,0.3643,0.9336,0.61,1.71,2.01,18.33,1.52,59.90
47.266348,-0.0142,0.3677,0.9268,1.95,0.43,1.89,18.35,1.52,59.94
47.266348,-0.0142,0.3682,0.9263,0.49,0.67,1.34,18.37,1.52,59.98
47.296324,-0.0146,0.3657,0.9282,-0.67,0.98,0.61,18.37,1.52,60.00
47.296324,-0.0142,0.3647,0.9263,0.00,1.16,0.85,18.36,1.54,60.02
47.326295,-0.0146,0.3628,0.9346,0.49,1.65,1.04,18.37,1.56,60.05
47.326295,-0.0132,0.3657,0.9346,0.06,1.28,1.04,18.37,1.58,60.08
47.386333,-0.0127,0.3657,0.9326,-0.98,0.43,0.43,18.36,1.59,60.10
47.386333,-0.0142,0.3687,0.9219,-1.04,0.31,0.31,18.33,1.59,60.11
47.416278,-0.0137,0.3672,0.9194,0.24,0.98,0.49,18.33,1.60,60.12
47.416278,-0.0122,0.3667,0.9082,-0.31,0.85,0.37,18.32,1.61,60.13
47.446355,-0.0117,0.3643,0.9111,-1.46,0.43,0.06,18.30,1.62,60.14
47.446355,-0.0142,0.3623,0.9272,-2.69,0.98,-0.18,18.25,1.63,60.14
47.506637,-0.0171,0.3623,0.9399,-2.08,1.28,0.00,18.20,1.66,60.14
47.506637,-0.0161,0.3628,0.9448,-1.83,0.92,0.55,18.17,1.68,60.16
47.536712,-0.0151,0.3633,0.9424,-2.32,0.61,-0.06,18.12,1.69,60.17
47.536712,-0.0166,0.3594,0.9365,-1.53,0.18,-0.18,18.08,1.70,60.17
47.566491,-0.0176,0.3594,0.9365,-0.85,0.00,-0.31,18.05,1.70,60.16
47.566491,-0.0205,0.3608,0.9409,0.92,-0.24,-0.06,18.05,1.69,60.16
47.626431,-0.0156,0.3613,0.9399,0.55,0.37,-0.06,18.06,1.69,60.16
47.626431,-0.0171,0.3613,0.9360,0.18,0.49,0.12,18.07,1.70,60.16
47.658366,-0.0200,0.3594,0.9326,-0.31,0.55,0.43,18.07,1.71,60.17
47.658366,-0.0181,0.3623,0.9312,0.24,0.37,0.43,18.06,1.71,60.18
47.686365,-0.0205,0.3589,0.9341,0.24,0.85,0.24,18.07,1.72,60.18
47.686365,-0.0171,0.3516,0.9360,-0.92,0.73,0.79,18.05,1.74,60.20
47.746448,-0.0142,0.3574,0.9385,-0.49,-0.06,0.73,18.04,1.74,60.22
47.746448,-0.0142,0.3618,0.9326,1.04,-0.43,0.73,18.05,1.72,60.23
47.776408,-0.0171,0.3647,0.9385,-0.43,0.61,0.12,18.05,1.72,60.23
47.776408,-0.0142,0.3701,0.9312,0.18,0.98,0.06,18.04,1.74,60.24
47.806677,-0.0156,0.3701,0.9238,0.73,0.85,-0.24,18.05,1.75,60.24
47.806677,-0.0151,0.3667,0.9160,0.18,0.37,-0.24,18.06,1.77,60.24
47.866097,-0.0205,0.3618,0.9287,0.24,-0.06,0.00,18.07,1.76,60.24
47.866097,-0.0200,0.3579,0.9380,-0.92,1.04,0.61,18.06,1.77,60.25
47.896613,-0.0171,0.3604,0.9375,-1.46,0.31,0.43,18.02,1.79,60.27
47.896613,-0.0171,0.3564,0.9419,-0.37,-0.61,-0.24,18.01,1.78,60.27
47.926476,-0.0220,0.3579,0.9404,1.22,-1.16,-0.18,18.01,1.76,60.25
47.926476,-0.0190,0.3574,0.9380,1.95,-0.85,-0.24,18.05,1.74,60.24
47.986286,-0.0171,0.3608,0.9297,1.89,-0.92,-0.31,18.08,1.72,60.23
47.986286,-0.0166,0.3618,0.9248,0.12,-0.92,0.00,18.10,1.71,60.22
48.016431,-0.0151,0.3628,0.9253,0.92,-0.18,0.92,18.11,1.69,60.22
48.016431,-0.0137,0.3638,0.9272,-0.06,0.98,0.37,18.12,1.70,60.23
48.076386,-0.0146,0.3657,0.9302,0.00,0.49,0.00,18.11,1.71,60.24
48.076386,-0.0166,0.3652,0.9282,0.06,-0.55,-0.37,18.20,1.71,60.24
48.107108,-0.0225,0.3657,0.9326,0.31,-0.55,-0.37,18.23,1.71,60.25
48.107108,-0.0186,0.3652,0.9341,0.24,0.18,0.00,18.25,1.71,60.25
48.136714,-0.0176,0.3662,0.9346,0.00,0.00,-0.18,18.26,1.71,60.25
48.136714,-0.0161,0.3682,0.9307,0.37,-0.55,-0.18,18.26,1.71,60.25
48.196322,-0.0171,0.3677,0.9297,0.18,-0.24,0.18,18.28,1.71,60.25
48.196322,-0.0142,0.3657,0.9277,0.06,-0.18,0.55,18.28,1.71,60.25
48.226320,-0.0127,0.3667,0.9224,-0.31,-0.24,-0.18,18.29,1.71,60.25
48.226320,-0.0161,0.3647,0.9263,-0.24,-0.55,-0.61,18.29,1.71,60.25
48.256403,-0.0186,0.3633,0.9297,-0.31,-0.31,-0.37,18.30,1.71,60.25
48.256403,-0.0181,0.3628,0.9326,-1.89,-0.31,-0.43,18.30,1.71,60.25
48.316438,-0.0176,0.3623,0.9321,-0.18,-0.61,0.12,18.31,1.71,60.25
48.316438,-0.0132,0.3618,0.9297,0.73,-0.24,-0.31,18.31,1.71,60.25
48.346390,-0.0220,0.3633,0.9380,1.04,0.06,-0.06,18.31,1.71,60.25
48.346390,-0.0161,0.3633,0.9331,0.49,-1.10,-0.49,18.32,1.71,60.25
48.376354,-0.0200,0.3618,0.9385,0.12,-1.16,-0.55,18.33,1.71,60.25
48.376354,-0.0142,0.3623,0.9351,0.98,-0.06,0.31,18.33,1.72,60.25
48.436485,-0.0156,0.3623,0.9321,0.61,0.61,0.06,18.34,1.72,60.25
48.436485,-0.0117,0.3633,0.9253,-0.24,0.85,-0.06,18.34,1.72,60.25
48.466064,-0.0122,0.3667,0.9292,-1.89,0.12,-0.49,18.34,1.72,60.25
48.466064,-0.0093,0.3667,0.9287,0.55,-0.73,0.18,18.35,1.72,60.25
48.496025,-0.0098,0.3687,0.9326,0.00,-0.06,-0.06,18.35,1.71,60.25
48.496025,-0.0063,0.3672,0.9336,-1.04,-0.06,-0.49,18.36,1.71,60.25
48.556384,-0.0083,0.3657,0.9370,0.12,-0.61,-0.73,18.36,1.71,60.25
48.556384,-0.0088,0.3638,0.9414,-0.24,0.00,-0.85,18.36,1.71,60.25
48.586243,-0.0117,0.3638,0.9414,0.98,-0.18,-0.73,18.37,1.72,60.23
48.586243,-0.0127,0.3652,0.9351,-0.55,0.00,-0.79,18.37,1.72,60.22
48.616379,-0.0151,0.3682,0.9316,-1.59,-0.55,-1.04,18.34,1.72,60.20
48.616379,-0.0181,0.3613,0.9292,-2.32,-0.43,-0.92,18.30,1.72,60.17
48.676352,-0.0186,0.3643,0.9307,-0.67,-0.06,0.12,18.26,1.71,60.16
48.676352,-0.0181,0.3604,0.9307,-1.28,0.61,-0.31,18.25,1.72,60.16
48.706674,-0.0195,0.3647,0.9272,-1.22,0.37,-0.31,18.22,1.73,60.16
48.706674,-0.0239,0.3604,0.9277,-1.71,0.92,-0.12,18.18,1.75,60.16
48.737818,-0.0254,0.3638,0.9277,-0.37,0.85,0.61,18.15,1.76,60.17
48.737818,-0.0239,0.3623,0.9253,-0.24,1.10,1.22,18.15,1.77,60.19
48.796365,-0.0186,0.3638,0.9229,-1.16,0.43,0.49,18.13,1.78,60.22
48.796365,-0.0156,0.3579,0.9287,-0.31,-0.06,0.49,18.12,1.77,60.23
48.826271,-0.0142,0.3623,0.9321,-0.43,0.43,0.43,18.11,1.77,60.24
48.826271,-0.0156,0.3628,0.9380,-0.37,1.28,0.37,18.09,1.79,60.25
48.856306,-0.0132,0.3613,0.9380,-0.61,0.85,0.00,18.08,1.81,60.26
48.856306,-0.0142,0.3618,0.9365,-0.61,0.43,-0.37,18.06,1.82,60.26
48.916333,-0.0132,0.3623,0.9312,-1.04,0.31,-0.24,18.04,1.83,60.25
48.916333,-0.0122,0.3608,0.9292,-1.40,0.00,-0.67,18.02,1.83,60.24
48.946278,-0.0146,0.3618,0.9307,-2.20,0.00,-1.28,17.97,1.84,60.23
48.946278,-0.0186,0.3618,0.9365,-1.83,0.06,-0.92,17.93,1.85,60.20
48.976240,-0.0181,0.3613,0.9375,-1.16,0.49,-0.49,17.90,1.86,60.19
48.976240,-0.0210,0.3589,0.9385,-0.92,0.31,-0.67,17.87,1.87,60.18
49.036719,-0.0195,0.3579,0.9346,0.24,-0.31,-0.43,17.86,1.87,60.17
49.036719,-0.0210,0.3550,0.9375,0.12,-0.43,-0.55,17.86,1.86,60.16
49.066364,-0.0195,0.3564,0.9370,0.18,-0.43,-0.67,17.86,1.86,60.14
49.066364,-0.0220,0.3550,0.9365,-0.73,-0.06,-0.31,17.86,1.86,60.12
49.096312,-0.0210,0.3550,0.9326,-0.06,0.37,0.37,17.85,1.86,60.12
49.096312,-0.0225,0.3579,0.9307,0.61,0.67,0.98,17.85,1.86,60.14
49.156401,-0.0200,0.3589,0.9248,0.06,0.61,0.61,17.85,1.87,60.16
49.156401,-0.0190,0.3618,0.9229,0.06,0.43,0.67,17.85,1.87,60.18
49.186616,-0.0176,0.3652,0.9243,0.24,0.12,0.43,17.86,1.87,60.19
49.186616,-0.0171,0.3623,0.9316,0.18,0.55,0.61,17.86,1.87,60.20
49.216304,-0.0137,0.3594,0.9380,0.37,0.73,0.79,17.86,1.88,60.22
49.216304,-0.0112,0.3589,0.9404,-0.18,0.00,0.00,17.86,1.88,60.23
49.276401,-0.0161,0.3579,0.9448,0.00,-0.79,-0.61,17.86,1.88,60.21
49.276401,-0.0156,0.3579,0.9395,-0.12,-0.67,-0.85,17.86,1.87,60.19
49.306615,-0.0186,0.3574,0.9351,-0.67,-0.73,-0.79,17.85,1.86,60.17
49.306615,-0.0186,0.3579,0.9277,-1.59,-0.61,-0.92,17.82,1.85,60.15
49.336715,-0.0186,0.3594,0.9282,-0.55,-0.61,-0.92,17.79,1.84,60.12
49.336715,-0.0210,0.3584,0.9302,-0.18,0.00,-0.37,17.78,1.84,60.11
49.396406,-0.0195,0.3579,0.9302,-0.12,0.43,0.37,17.78,1.84,60.11
49.396406,-0.0186,0.3569,0.9292,-0.49,0.24,0.18,17.76,1.85,60.12
49.426115,-0.0200,0.3594,0.9312,-0.43,-0.24,-0.06,17.75,1.85,60.12
49.426115,-0.0229,0.3599,0.9351,0.12,-0.12,0.43,17.75,1.84,60.12
49.486365,-0.0200,0.3550,0.9419,-0.12,0.49,0.61,17.75,1.84,60.13
49.486365,-0.0190,0.3574,0.9438,-0.43,0.37,0.18,17.74,1.85,60.14
49.517433,-0.0176,0.3584,0.9370,0.31,0.24,0.18,17.74,1.85,60.14
49.517433,-0.0205,0.3618,0.9316,0.49,0.00,0.37,17.74,1.85,60.15
49.546389,-0.0210,0.3623,0.9287,1.10,0.06,0.79,17.76,1.84,60.16
49.546389,-0.0176,0.3584,0.9297,0.37,0.37,0.73,17.86,1.84,60.18
49.606718,-0.0146,0.3589,0.9316,0.24,0.24,0.49,17.93,1.83,60.18
49.606718,-0.0132,0.3589,0.9282,0.00,0.00,0.49,17.98,1.83,60.18
49.636575,-0.0166,0.3604,0.9302,0.37,-0.12,0.61,18.02,1.83,60.18
49.636575,-0.0122,0.3584,0.9331,0.00,0.12,0.24,18.05,1.83,60.18
49.666364,-0.0142,0.3569,0.9351,-0.12,-0.31,-0.43,18.07,1.83,60.18
49.666364,-0.0151,0.3584,0.9365,0.00,-0.12,-0.61,18.09,1.83,60.18
49.726313,-0.0171,0.3589,0.9395,-0.43,-0.31,-0.85,18.11,1.83,60.18
49.726313,-0.0205,0.3594,0.9360,-0.98,-0.12,-0.49,18.13,1.83,60.18
49.756285,-0.0190,0.3604,0.9336,0.06,0.12,0.06,18.14,1.83,60.18
49.756285,-0.0181,0.3613,0.9297,0.55,0.00,0.06,18.16,1.83,60.18
49.786330,-0.0200,0.3613,0.9282,0.49,0.18,-0.06,18.17,1.83,60.18
49.786330,-0.0186,0.3623,0.9292,0.12,0.55,-0.12,18.18,1.83,60.18
49.846305,-0.0181,0.3608,0.9360,-0.92,0.67,-0.06,18.19,1.83,60.18
49.846305,-0.0171,0.3560,0.9351,-0.92,0.12,-0.18,18.20,1.83,60.18
49.876323,-0.0195,0.3594,0.9341,0.00,-0.06,0.18,18.22,1.83,60.18
49.876323,-0.0186,0.3594,0.9380,0.79,0.43,0.06,18.23,1.83,60.18
49.906547,-0.0200,0.3599,0.9351,0.92,0.49,-0.06,18.24,1.83,60.18
49.906547,-0.0190,0.3652,0.9292,1.16,0.00,0.00,18.24,1.83,60.18
49.966375,-0.0181,0.3618,0.9243,1.16,-0.24,0.00,18.25,1.83,60.18
49.966375,-0.0151,0.3589,0.9307,0.79,0.00,0.31,18.26,1.83,60.18
49.996336,-0.0161,0.3613,0.9346,-0.43,-0.06,-0.18,18.27,1.83,60.18
49.996336,-0.0166,0.3628,0.9341,-1.65,0.24,-0.37,18.28,1.83,60.19
50.026368,-0.0210,0.3662,0.9312,-1.53,-0.12,-1.28,18.29,1.83,60.19
50.026368,-0.0278,0.3647,0.9292,-1.16,-0.55,-1.16,18.30,1.83,60.19
50.088101,-0.0254,0.3604,0.9331,-0.31,-0.98,-0.79,18.30,1.83,60.19
50.088101,-0.0205,0.3589,0.9399,0.55,-1.59,-0.06,18.31,1.83,60.19
50.116329,-0.0137,0.3569,0.9385,0.73,-1.28,0.24,18.32,1.83,60.19
50.116329,-0.0107,0.3569,0.9297,0.79,-0.67,-0.06,18.33,1.83,60.19
50.146467,-0.0142,0.3550,0.9268,0.85,-0.79,-0.55,18.34,1.83,60.19
50.146467,-0.0112,0.3652,0.9243,0.73,-0.98,0.00,18.34,1.83,60.19
50.206368,-0.0146,0.3604,0.9287,-0.24,0.06,-0.06,18.35,1.83,60.19
50.206368,-0.0171,0.3613,0.9312,0.12,0.49,0.18,18.36,1.83,60.19
50.236618,-0.0151,0.3608,0.9326,0.61,1.28,0.79,18.36,1.83,60.19
50.236618,-0.0171,0.3618,0.9316,1.40,1.10,0.92,18.37,1.83,60.19
50.266422,-0.0176,0.3623,0.9321,0.73,0.67,0.79,18.38,1.83,60.19
50.266422,-0.0132,0.3623,0.9360,0.73,0.31,0.73,18.39,1.83,60.19
50.326390,-0.0127,0.3638,0.9370,0.55,-0.24,0.37,18.40,1.83,60.19
50.326390,-0.0142,0.3647,0.9355,-0.24,-1.22,-0.43,18.40,1.83,60.19
50.356413,-0.0181,0.3608,0.9360,-1.04,-0.49,-0.43,18.41,1.83,60.19
50.356413,-0.0171,0.3633,0.9346,0.24,0.55,0.06,18.42,1.82,60.19
50.386379,-0.0205,0.3623,0.9341,-0.24,0.67,-0.31,18.42,1.82,60.19
50.386379,-0.0210,0.3628,0.9302,0.37,-0.12,0.12,18.43,1.82,60.19
50.446511,-0.0195,0.3623,0.9277,0.00,-0.24,0.18,18.44,1.82,60.19
50.446511,-0.0195,0.3633,0.9297,-0.55,0.12,0.18,18.45,1.82,60.19
50.476180,-0.0186,0.3643,0.9277,0.98,0.00,0.85,18.45,1.82,60.19
50.476180,-0.0176,0.3638,0.9316,0.12,0.18,0.98,18.46,1.82,60.19
50.506527,-0.0156,0.3628,0.9341,-0.24,0.12,0.55,18.47,1.82,60.19
50.506527,-0.0181,0.3599,0.9385,-0.55,0.24,0.18,18.47,1.82,60.19
50.566205,-0.0190,0.3613,0.9409,-0.24,0.31,0.55,18.48,1.82,60.19
50.566205,-0.0176,0.3628,0.9375,0.61,-0.18,0.92,18.49,1.82,60.19
50.596290,-0.0181,0.3623,0.9360,0.12,-0.12,0.49,18.50,1.82,60.19
50.596290,-0.0161,0.3633,0.9326,0.55,0.18,0.55,18.50,1.82,60.19
50.627339,-0.0171,0.3647,0.9307,1.04,0.31,1.04,18.51,1.82,60.19
50.627339,-0.0156,0.3657,0.9258,0.85,0.18,1.46,18.52,1.82,60.19
50.686292,-0.0132,0.3662,0.9214,-0.24,-0.06,1.22,18.52,1.82,60.19
50.686292,-0.0122,0.3652,0.9238,-0.67,-0.06,0.37,18.53,1.82,60.19
50.716264,-0.0127,0.3633,0.9229,-0.24,-0.18,-0.12,18.54,1.82,60.19
50.716264,-0.0161,0.3647,0.9258,-0.18,0.00,-0.24,18.54,1.82,60.19
50.746134,-0.0132,0.3652,0.9307,0.00,0.24,-0.31,18.55,1.82,60.19
50.746134,-0.0166,0.3633,0.9365,-0.31,0.12,-0.24,18.56,1.82,60.19
50.837281,-0.0181,0.3633,0.9360,-0.37,0.00,-0.06,18.57,1.82,60.19
50.837281,-0.0161,0.3633,0.9346,-0.31,0.43,0.00,18.57,1.82,60.19
50.839031,-0.0151,0.3628,0.9370,0.24,0.31,0.18,18.58,1.82,60.19
50.839031,-0.0181,0.3633,0.9355,0.55,0.00,0.31,18.59,1.82,60.19
50.896068,-0.0176,0.3628,0.9321,0.49,0.00,0.43,18.59,1.82,60.19
50.896068,-0.0171,0.3638,0.9263,-0.43,0.12,0.49,18.60,1.82,60.19
