t,ax,ay,az,gx,gy,gz,wx,wy,wz
0.059829,-0.0239,-0.9956,0.0771,-0.06,0.00,-0.06,-87.07,2.15,-2.70
0.059829,-0.0229,-0.9961,0.0771,-0.06,0.00,-0.06,-87.07,2.15,-2.70
0.059859,-0.0244,-0.9951,0.0771,-0.12,0.00,-0.06,-87.07,2.15,-2.70
0.059859,-0.0229,-0.9961,0.0752,-0.06,0.00,0.00,-87.07,2.15,-2.70
0.114620,-0.0239,-0.9961,0.0757,0.00,0.00,-0.06,-87.07,2.15,-2.70
0.114620,-0.0234,-0.9956,0.0752,-0.06,0.00,-0.12,-87.07,2.15,-2.70
0.143656,-0.0234,-0.9946,0.0767,0.00,0.00,-0.06,-87.07,2.15,-2.70
0.143656,-0.0239,-0.9946,0.0771,0.00,0.00,-0.06,-87.07,2.15,-2.70
0.174395,-0.0225,-0.9951,0.0757,0.00,0.00,-0.12,-87.07,2.15,-2.70
0.174395,-0.0249,-0.9956,0.0776,0.00,0.00,0.00,-87.07,2.15,-2.70
0.235135,-0.0249,-0.9961,0.0762,0.00,0.00,-0.06,-87.07,2.15,-2.70
0.235135,-0.0239,-0.9951,0.0747,0.00,0.00,-0.06,-87.07,2.15,-2.70
0.264027,-0.0244,-0.9956,0.0771,0.00,0.00,-0.06,-87.07,2.15,-2.70
0.264027,-0.0229,-0.9956,0.0767,0.00,0.00,-0.06,-87.07,2.15,-2.70
0.324619,-0.0239,-0.9951,0.0771,0.00,0.00,-0.06,-87.07,2.15,-2.70
0.324619,-0.0234,-0.9941,0.0767,0.00,0.00,-0.06,-87.07,2.15,-2.70
0.353790,-0.0234,-0.9951,0.0767,0.00,0.00,0.00,-87.07,2.15,-2.70
0.353790,-0.0244,-0.9956,0.0757,-0.06,0.00,-0.06,-87.07,2.15,-2.70
0.384690,-0.0239,-0.9951,0.0752,0.00,0.00,-0.06,-87.07,2.15,-2.70
0.384690,-0.0234,-0.9951,0.0752,0.00,0.00,-0.06,-87.07,2.15,-2.70
0.444736,-0.0225,-0.9961,0.0757,0.00,0.00,-0.06,-87.07,2.15,-2.70
0.444736,-0.0239,-0.9956,0.0762,0.00,0.00,-0.12,-87.07,2.15,-2.70
0.500089,-0.0244,-0.9956,0.0771,0.00,0.00,-0.06,-87.07,2.15,-2.70
0.500089,-0.0229,-0.9951,0.0771,-0.06,0.00,-0.12,-87.07,2.15,-2.70
0.505153,-0.0239,-0.9956,0.0771,0.00,0.00,-0.06,-87.07,2.15,-2.70
0.505153,-0.0239,-0.9956,0.0757,0.00,0.00,-0.06,-87.07,2.15,-2.70
0.567433,-0.0239,-0.9956,0.0767,0.00,0.00,-0.06,-87.07,2.15,-2.70
0.567433,-0.0234,-0.9941,0.0771,0.00,0.06,-0.06,-87.07,2.15,-2.70
0.593710,-0.0234,-0.9956,0.0767,0.00,0.00,-0.06,-87.07,2.15,-2.70
0.593710,-0.0234,-0.9946,0.0776,-0.06,0.00,-0.06,-87.07,2.15,-2.70
0.624960,-0.0244,-0.9951,0.0767,-0.06,0.00,0.00,-87.07,2.15,-2.70
0.624960,-0.0234,-0.9961,0.0762,-0.06,0.00,0.00,-87.07,2.15,-2.70
0.684748,-0.0249,-0.9961,0.0747,0.00,0.00,0.00,-87.06,2.15,-2.70
0.684748,-0.0239,-0.9951,0.0767,0.00,0.00,-0.06,-87.07,2.15,-2.70
0.713965,-0.0229,-0.9961,0.0762,0.00,0.00,-0.12,-87.07,2.15,-2.70
0.713965,-0.0234,-0.9951,0.0771,0.00,0.00,-0.06,-87.06,2.15,-2.70
0.743748,-0.0234,-0.9956,0.0762,-0.06,0.00,-0.06,-87.06,2.15,-2.70
0.743748,-0.0244,-0.9951,0.0757,0.00,0.00,0.00,-87.06,2.15,-2.70
0.805004,-0.0239,-0.9951,0.0747,0.00,0.00,-0.12,-87.07,2.15,-2.70
0.805004,-0.0249,-0.9961,0.0757,0.00,0.00,-0.12,-87.07,2.15,-2.70
0.833939,-0.0225,-0.9956,0.0771,0.06,0.00,-0.06,-87.07,2.15,-2.70
0.833939,-0.0225,-0.9956,0.0781,0.00,0.00,-0.12,-87.07,2.15,-2.70
0.864492,-0.0225,-0.9946,0.0781,-0.06,0.00,-0.12,-87.06,2.15,-2.70
0.864492,-0.0234,-0.9956,0.0767,-0.12,0.00,0.00,-87.06,2.15,-2.70
0.929779,-0.0234,-0.9961,0.0762,-0.06,0.00,0.00,-87.06,2.15,-2.70
0.929779,-0.0244,-0.9961,0.0752,0.00,0.00,-0.18,-87.06,2.15,-2.70
0.953950,-0.0239,-0.9956,0.0757,0.00,0.00,-0.12,-87.06,2.15,-2.70
0.953950,-0.0239,-0.9956,0.0767,0.00,0.00,-0.06,-87.06,2.15,-2.70
0.984842,-0.0229,-0.9951,0.0786,0.00,0.06,-0.06,-87.06,2.15,-2.70
0.984842,-0.0229,-0.9946,0.0767,-0.06,0.00,0.00,-87.06,2.15,-2.70
1.044843,-0.0239,-0.9961,0.0757,-0.12,0.00,0.00,-87.06,2.15,-2.70
1.044843,-0.0249,-0.9966,0.0757,-0.06,0.00,-0.12,-87.06,2.15,-2.70
1.074889,-0.0239,-0.9961,0.0747,0.00,0.00,-0.12,-87.06,2.15,-2.70
1.074889,-0.0234,-0.9956,0.0757,0.00,0.00,-0.12,-87.06,2.15,-2.70
1.104955,-0.0239,-0.9956,0.0771,0.00,0.00,-0.06,-87.06,2.15,-2.70
1.104955,-0.0234,-0.9951,0.0781,-0.06,0.00,-0.06,-87.06,2.15,-2.70
1.164716,-0.0225,-0.9956,0.0771,-0.06,0.00,-0.06,-87.06,2.15,-2.70
1.164716,-0.0244,-0.9946,0.0771,-0.12,0.00,-0.06,-87.06,2.15,-2.70
1.194034,-0.0239,-0.9956,0.0762,-0.06,0.00,-0.06,-87.06,2.15,-2.70
1.194034,-0.0249,-0.9956,0.0757,0.00,0.00,-0.06,-87.06,2.15,-2.70
1.225210,-0.0239,-0.9956,0.0767,0.00,0.00,-0.12,-87.06,2.15,-2.70
1.225210,-0.0220,-0.9956,0.0762,0.00,0.00,-0.12,-87.06,2.15,-2.70
1.284691,-0.0249,-0.9951,0.0786,0.00,0.00,-0.06,-87.06,2.15,-2.70
1.284691,-0.0225,-0.9966,0.0767,-0.12,0.06,-0.06,-87.06,2.15,-2.70
1.313989,-0.0239,-0.9956,0.0757,0.00,0.00,0.00,-87.06,2.15,-2.70
1.313989,-0.0259,-0.9956,0.0752,-0.06,0.00,-0.12,-87.06,2.15,-2.70
1.349368,-0.0215,-0.9961,0.0737,0.00,0.00,-0.18,-87.06,2.15,-2.70
1.349368,-0.0259,-0.9951,0.0767,0.00,0.00,-0.06,-87.06,2.15,-2.70
1.429643,-0.0225,-0.9961,0.0757,0.00,0.00,-0.06,-87.06,2.15,-2.70
1.429643,-0.0229,-0.9951,0.0767,0.00,0.00,0.00,-87.06,2.15,-2.70
1.433767,-0.0264,-0.9941,0.0796,-0.06,0.00,-0.12,-87.06,2.15,-2.70
1.433767,-0.0210,-0.9961,0.0747,-0.06,0.00,-0.12,-87.06,2.15,-2.70
1.464493,-0.0244,-0.9951,0.0762,-0.06,0.00,0.00,-87.06,2.15,-2.70
1.464493,-0.0269,-0.9951,0.0776,0.00,0.00,-0.18,-87.06,2.15,-2.70
1.524693,-0.0215,-0.9966,0.0742,0.00,0.00,-0.06,-87.06,2.15,-2.70
1.524693,-0.0259,-0.9946,0.0781,0.00,0.00,-0.12,-87.06,2.15,-2.70
1.554840,-0.0225,-0.9956,0.0767,-0.06,0.00,-0.18,-87.06,2.15,-2.70
1.554840,-0.0225,-0.9956,0.0762,0.00,0.00,0.00,-87.06,2.15,-2.70
1.583956,-0.0259,-0.9951,0.0781,-0.06,0.00,-0.06,-87.06,2.15,-2.70
1.583956,-0.0225,-0.9966,0.0747,-0.06,0.00,-0.12,-87.06,2.15,-2.70
1.644744,-0.0259,-0.9951,0.0757,0.00,0.00,-0.06,-87.06,2.15,-2.70
1.644744,-0.0239,-0.9956,0.0757,0.00,0.00,-0.18,-87.06,2.15,-2.70
1.675319,-0.0220,-0.9956,0.0757,0.00,0.00,0.00,-87.06,2.15,-2.70
1.675319,-0.0244,-0.9946,0.0781,-0.06,0.00,0.00,-87.06,2.15,-2.70
1.735059,-0.0229,-0.9961,0.0757,-0.12,0.00,0.00,-87.06,2.15,-2.70
1.735059,-0.0244,-0.9956,0.0767,-0.06,0.00,0.00,-87.06,2.15,-2.70
1.763894,-0.0244,-0.9951,0.0757,-0.06,0.00,-0.12,-87.06,2.15,-2.70
1.763894,-0.0225,-0.9951,0.0752,0.00,0.00,-0.12,-87.06,2.15,-2.70
1.794612,-0.0244,-0.9951,0.0767,0.00,0.00,-0.12,-87.06,2.15,-2.70
1.794612,-0.0210,-0.9956,0.0767,0.00,0.00,-0.06,-87.06,2.15,-2.70
1.854834,-0.0239,-0.9951,0.0767,0.00,0.00,0.00,-87.06,2.15,-2.70
1.854834,-0.0234,-0.9956,0.0752,-0.06,0.00,-0.12,-87.06,2.15,-2.70
1.884026,-0.0229,-0.9961,0.0752,-0.06,0.00,0.00,-87.06,2.15,-2.70
1.884026,-0.0249,-0.9956,0.0762,-0.06,0.00,-0.06,-87.06,2.15,-2.70
1.914609,-0.0234,-0.9961,0.0752,0.00,0.00,-0.12,-87.06,2.15,-2.70
1.914609,-0.0244,-0.9956,0.0767,0.00,0.00,-0.12,-87.06,2.15,-2.70
1.975041,-0.0234,-0.9951,0.0762,-0.06,0.00,-0.06,-87.06,2.15,-2.70
1.975041,-0.0225,-0.9946,0.0767,-0.06,0.00,0.00,-87.06,2.15,-2.70
2.004245,-0.0239,-0.9946,0.0767,-0.06,0.00,0.00,-87.06,2.15,-2.70
2.004245,-0.0244,-0.9956,0.0752,-0.12,0.00,-0.06,-87.06,2.15,-2.70
2.034775,-0.0249,-0.9956,0.0752,0.00,0.00,-0.06,-87.06,2.15,-2.70
2.034775,-0.0239,-0.9956,0.0762,0.00,0.00,-0.06,-87.06,2.15,-2.70
2.094755,-0.0234,-0.9946,0.0757,0.00,0.00,-0.12,-87.06,2.15,-2.70
2.094755,-0.0239,-0.9951,0.0776,0.00,0.00,-0.06,-87.06,2.15,-2.70
2.123970,-0.0234,-0.9956,0.0762,-0.12,0.00,0.00,-87.06,2.15,-2.70
2.123970,-0.0244,-0.9956,0.0762,-0.12,0.00,0.00,-87.06,2.15,-2.70
2.154736,-0.0239,-0.9961,0.0757,-0.06,0.00,-0.06,-87.06,2.15,-2.70
2.154736,-0.0239,-0.9961,0.0757,0.00,0.00,-0.12,-87.06,2.15,-2.70
2.214805,-0.0244,-0.9951,0.0767,0.00,0.00,-0.12,-87.06,2.15,-2.70
2.214805,-0.0225,-0.9966,0.0767,0.00,0.00,-0.06,-87.06,2.15,-2.70
2.243946,-0.0234,-0.9951,0.0762,0.00,0.00,-0.06,-87.06,2.15,-2.70
2.243946,-0.0244,-0.9956,0.0776,0.00,0.00,-0.12,-87.06,2.15,-2.70
2.276111,-0.0239,-0.9966,0.0757,-0.06,0.00,-0.06,-87.06,2.15,-2.70
2.276111,-0.0249,-0.9961,0.0747,0.00,0.00,-0.06,-87.06,2.15,-2.70
2.334751,-0.0239,-0.9951,0.0757,0.00,0.00,-0.12,-87.06,2.15,-2.70
2.334751,-0.0234,-0.9951,0.0757,0.00,0.00,-0.12,-87.06,2.15,-2.70
2.363936,-0.0234,-0.9961,0.0762,0.00,0.00,-0.18,-87.06,2.15,-2.70
2.363936,-0.0229,-0.9961,0.0776,0.00,0.00,-0.06,-87.06,2.15,-2.70
2.396119,-0.0229,-0.9951,0.0767,0.00,0.00,-0.06,-87.06,2.15,-2.70
2.396119,-0.0244,-0.9956,0.0771,-0.06,0.00,-0.06,-87.06,2.15,-2.70
2.454756,-0.0234,-0.9961,0.0752,-0.06,0.00,-0.06,-87.06,2.15,-2.70
2.454756,-0.0239,-0.9961,0.0747,0.00,0.00,-0.12,-87.06,2.15,-2.70
2.483982,-0.0239,-0.9951,0.0747,0.00,0.00,-0.12,-87.06,2.15,-2.70
2.483982,-0.0244,-0.9956,0.0762,0.00,0.00,-0.12,-87.06,2.15,-2.70
2.515129,-0.0239,-0.9966,0.0771,0.00,0.00,-0.12,-87.06,2.15,-2.70
2.515129,-0.0225,-0.9946,0.0771,0.00,0.00,-0.12,-87.06,2.15,-2.70
2.577089,-0.0229,-0.9956,0.0771,-0.06,0.00,-0.06,-87.06,2.15,-2.70
2.577089,-0.0234,-0.9956,0.0762,-0.12,0.00,-0.12,-87.06,2.15,-2.70
2.604247,-0.0234,-0.9951,0.0762,-0.06,0.00,0.00,-87.06,2.15,-2.70
2.604247,-0.0244,-0.9961,0.0747,0.00,0.00,-0.12,-87.06,2.15,-2.70
2.634748,-0.0234,-0.9961,0.0767,0.00,0.00,-0.12,-87.06,2.15,-2.70
2.634748,-0.0225,-0.9956,0.0776,0.00,0.00,-0.12,-87.06,2.15,-2.70
2.694826,-0.0229,-0.9946,0.0781,-0.12,0.00,-0.06,-87.06,2.15,-2.70
2.694826,-0.0234,-0.9951,0.0767,-0.06,0.00,0.00,-87.06,2.15,-2.70
2.724002,-0.0244,-0.9956,0.0752,-0.12,0.00,0.00,-87.06,2.15,-2.70
2.724002,-0.0249,-0.9961,0.0752,0.00,0.00,-0.12,-87.06,2.15,-2.70
2.756718,-0.0234,-0.9966,0.0752,0.00,0.00,-0.12,-87.06,2.15,-2.70
2.756718,-0.0229,-0.9956,0.0767,0.00,0.00,-0.06,-87.06,2.15,-2.70
2.814813,-0.0239,-0.9956,0.0776,-0.06,0.00,-0.12,-87.06,2.15,-2.70
2.814813,-0.0229,-0.9956,0.0767,-0.06,0.00,0.00,-87.06,2.15,-2.70
2.843957,-0.0239,-0.9951,0.0762,-0.12,0.00,0.00,-87.06,2.15,-2.70
2.843957,-0.0249,-0.9951,0.0747,-0.12,0.00,-0.06,-87.06,2.15,-2.70
2.874756,-0.0244,-0.9956,0.0742,0.00,0.00,-0.12,-87.06,2.15,-2.70
2.874756,-0.0239,-0.9951,0.0757,0.00,0.00,-0.18,-87.06,2.15,-2.70
2.934785,-0.0229,-0.9966,0.0771,0.06,0.00,-0.12,-87.06,2.15,-2.70
2.934785,-0.0229,-0.9946,0.0776,0.00,0.00,-0.06,-87.06,2.15,-2.70
2.964127,-0.0225,-0.9956,0.0767,-0.12,0.00,0.00,-87.06,2.15,-2.70
2.964127,-0.0234,-0.9966,0.0752,-0.12,0.00,0.00,-87.06,2.15,-2.70
2.994732,-0.0244,-0.9951,0.0752,-0.06,0.00,-0.12,-87.06,2.15,-2.70
2.994732,-0.0234,-0.9951,0.0752,0.00,0.00,-0.12,-87.06,2.15,-2.70
3.054776,-0.0239,-0.9946,0.0752,0.00,0.00,-0.18,-87.06,2.15,-2.70
3.054776,-0.0239,-0.9956,0.0767,0.00,0.00,-0.12,-87.06,2.15,-2.70
3.084012,-0.0229,-0.9951,0.0781,0.00,0.00,-0.12,-87.06,2.15,-2.70
3.084012,-0.0234,-0.9956,0.0771,-0.06,0.00,0.00,-87.06,2.15,-2.70
3.144773,-0.0229,-0.9951,0.0767,-0.12,0.00,0.00,-87.06,2.15,-2.70
3.144773,-0.0239,-0.9966,0.0752,-0.12,0.00,-0.06,-87.06,2.15,-2.70
3.174037,-0.0244,-0.9961,0.0747,0.00,0.00,0.00,-87.06,2.15,-2.70
3.174037,-0.0244,-0.9956,0.0752,0.00,0.00,-0.12,-87.06,2.15,-2.70
3.205062,-0.0220,-0.9956,0.0767,0.06,0.00,-0.12,-87.06,2.15,-2.70
3.205062,-0.0225,-0.9956,0.0796,0.00,0.00,0.00,-87.06,2.15,-2.70
3.264895,-0.0215,-0.9956,0.0781,-0.06,0.00,-0.06,-87.06,2.15,-2.70
3.264895,-0.0229,-0.9956,0.0762,-0.12,0.00,0.00,-87.06,2.15,-2.70
3.293993,-0.0234,-0.9951,0.0752,-0.12,0.00,0.00,-87.06,2.15,-2.70
3.293993,-0.0254,-0.9961,0.0752,-0.06,0.00,-0.12,-87.06,2.15,-2.70
3.324779,-0.0239,-0.9956,0.0757,0.00,0.00,-0.06,-87.06,2.15,-2.70
3.324779,-0.0234,-0.9956,0.0767,0.00,0.00,-0.12,-87.06,2.15,-2.70
3.384787,-0.0225,-0.9951,0.0767,0.00,0.06,-0.06,-87.06,2.15,-2.70
3.384787,-0.0225,-0.9956,0.0757,0.00,0.00,-0.06,-87.06,2.15,-2.70
3.414225,-0.0229,-0.9956,0.0762,0.00,0.00,-0.06,-87.06,2.15,-2.70
3.414225,-0.0244,-0.9961,0.0767,0.00,0.00,-0.12,-87.06,2.15,-2.70
3.444716,-0.0239,-0.9946,0.0771,0.00,0.00,-0.06,-87.06,2.15,-2.70
3.444716,-0.0234,-0.9946,0.0776,0.00,0.00,-0.06,-87.06,2.15,-2.70
3.505212,-0.0229,-0.9946,0.0781,-0.12,0.00,0.00,-87.06,2.15,-2.70
3.505212,-0.0239,-0.9956,0.0757,-0.12,0.00,-0.06,-87.06,2.15,-2.70
3.533980,-0.0244,-0.9951,0.0752,-0.12,0.00,0.00,-87.06,2.15,-2.70
3.533980,-0.0244,-0.9956,0.0752,0.00,0.00,-0.12,-87.06,2.15,-2.70
3.564859,-0.0229,-0.9961,0.0757,0.00,0.00,-0.12,-87.06,2.15,-2.70
3.564859,-0.0234,-0.9951,0.0771,0.00,0.00,-0.06,-87.06,2.15,-2.70
3.624798,-0.0215,-0.9951,0.0786,-0.06,0.00,0.00,-87.06,2.15,-2.70
3.624798,-0.0229,-0.9956,0.0786,-0.18,0.00,0.00,-87.06,2.15,-2.70
3.654033,-0.0234,-0.9966,0.0752,-0.18,0.00,0.00,-87.06,2.15,-2.70
3.654033,-0.0239,-0.9961,0.0752,-0.12,0.00,0.00,-87.06,2.15,-2.70
3.684822,-0.0259,-0.9956,0.0752,0.00,0.00,-0.12,-87.06,2.15,-2.70
3.684822,-0.0229,-0.9956,0.0762,0.00,0.00,-0.18,-87.06,2.15,-2.70
3.744786,-0.0225,-0.9956,0.0776,0.00,0.00,-0.12,-87.06,2.15,-2.70
3.744786,-0.0234,-0.9941,0.0791,-0.06,0.00,-0.06,-87.06,2.15,-2.70
3.775170,-0.0215,-0.9951,0.0771,-0.18,0.00,0.00,-87.06,2.15,-2.70
3.775170,-0.0234,-0.9956,0.0757,-0.18,0.00,0.00,-87.06,2.15,-2.70
3.804356,-0.0225,-0.9971,0.0752,-0.12,0.00,0.00,-87.06,2.15,-2.70
3.804356,-0.0259,-0.9956,0.0762,-0.12,0.00,0.00,-87.06,2.15,-2.70
3.866994,-0.0239,-0.9951,0.0767,-0.12,0.00,0.00,-87.06,2.15,-2.70
3.866994,-0.0244,-0.9951,0.0752,-0.06,0.00,0.00,-87.06,2.15,-2.70
3.894542,-0.0259,-0.9951,0.0752,0.00,0.00,0.00,-87.06,2.15,-2.70
3.894542,-0.0249,-0.9961,0.0747,0.00,0.00,-0.12,-87.06,2.15,-2.70
3.924853,-0.0259,-0.9961,0.0732,0.18,0.00,-0.24,-87.06,2.15,-2.70
3.924853,-0.0264,-0.9966,0.0747,0.31,0.00,-0.43,-87.06,2.15,-2.70
3.984843,-0.0200,-0.9961,0.0762,0.37,0.00,-0.24,-87.06,2.15,-2.70
3.984843,-0.0210,-0.9941,0.0840,0.18,0.00,-0.18,-87.06,2.15,-2.70
4.014108,-0.0186,-0.9937,0.0825,-0.24,0.00,0.00,-87.06,2.15,-2.70
4.014108,-0.0215,-0.9941,0.0771,-0.43,0.00,0.12,-87.06,2.15,-2.70
4.044936,-0.0269,-0.9956,0.0732,-0.43,0.06,0.12,-87.06,2.15,-2.70
4.044936,-0.0249,-0.9976,0.0703,-0.12,0.00,0.00,-87.06,2.15,-2.70
4.105080,-0.0288,-0.9956,0.0732,0.00,-0.06,-0.06,-87.06,2.15,-2.70
4.105080,-0.0254,-0.9966,0.0713,0.18,0.00,-0.37,-87.06,2.15,-2.70
4.134045,-0.0215,-0.9961,0.0747,0.37,0.00,-0.31,-87.06,2.15,-2.70
4.134045,-0.0229,-0.9932,0.0835,0.18,0.00,-0.31,-87.06,2.15,-2.70
4.164954,-0.0166,-0.9951,0.0806,-0.12,0.00,-0.06,-87.06,2.15,-2.70
4.164954,-0.0225,-0.9946,0.0786,-0.31,0.00,0.18,-87.06,2.15,-2.70
4.224817,-0.0259,-0.9951,0.0752,-0.43,0.06,0.06,-87.06,2.15,-2.70
4.224817,-0.0254,-0.9966,0.0703,-0.12,0.00,0.00,-87.06,2.15,-2.70
4.254013,-0.0312,-0.9956,0.0732,0.06,0.00,-0.12,-87.06,2.15,-2.70
4.254013,-0.0239,-0.9966,0.0713,0.24,0.00,-0.43,-87.06,2.15,-2.70
4.284809,-0.0210,-0.9951,0.0791,0.37,0.00,-0.24,-87.06,2.15,-2.70
4.284809,-0.0229,-0.9937,0.0840,0.00,0.00,-0.18,-87.06,2.15,-2.70
4.345035,-0.0166,-0.9951,0.0806,-0.24,0.00,0.06,-87.06,2.15,-2.70
4.345035,-0.0254,-0.9937,0.0776,-0.37,0.00,0.18,-87.06,2.15,-2.70
4.374070,-0.0254,-0.9971,0.0708,-0.31,0.00,0.00,-87.06,2.15,-2.70
4.374070,-0.0264,-0.9966,0.0698,0.00,0.00,-0.06,-87.06,2.15,-2.70
4.405079,-0.0283,-0.9961,0.0747,0.18,0.00,-0.24,-87.06,2.15,-2.70
4.405079,-0.0195,-0.9956,0.0767,0.24,0.00,-0.24,-87.06,2.15,-2.70
4.464753,-0.0220,-0.9932,0.0820,0.00,0.00,0.00,-87.06,2.15,-2.70
4.464753,-0.0190,-0.9941,0.0811,-0.31,0.00,0.00,-87.06,2.15,-2.70
4.494794,-0.0229,-0.9951,0.0757,-0.31,0.00,0.18,-87.06,2.15,-2.70
4.494794,-0.0288,-0.9956,0.0732,-0.31,0.00,0.00,-87.06,2.15,-2.70
4.524844,-0.0249,-0.9971,0.0688,0.00,0.00,-0.06,-87.06,2.15,-2.70
4.524844,-0.0278,-0.9951,0.0747,0.18,0.00,-0.18,-87.06,2.15,-2.70
4.584871,-0.0225,-0.9956,0.0767,0.18,0.00,-0.31,-87.06,2.15,-2.70
4.584871,-0.0200,-0.9937,0.0806,0.00,-0.06,-0.06,-87.06,2.15,-2.70
4.614128,-0.0229,-0.9946,0.0811,-0.18,0.00,0.00,-87.06,2.15,-2.70
4.614128,-0.0229,-0.9961,0.0757,-0.31,0.00,0.06,-87.06,2.15,-2.70
4.674815,-0.0269,-0.9961,0.0732,-0.24,0.00,0.00,-87.06,2.15,-2.70
4.674815,-0.0269,-0.9966,0.0718,-0.06,0.00,-0.12,-87.06,2.15,-2.70
4.704363,-0.0239,-0.9961,0.0713,0.12,0.00,-0.12,-87.06,2.15,-2.70
4.704363,-0.0259,-0.9946,0.0771,0.18,0.00,-0.24,-87.06,2.15,-2.70
4.734833,-0.0186,-0.9956,0.0786,0.06,0.00,-0.18,-87.07,2.15,-2.70
4.734833,-0.0225,-0.9937,0.0811,0.00,0.00,0.00,-87.06,2.15,-2.70
4.795364,-0.0229,-0.9946,0.0762,-0.24,0.00,-0.06,-87.06,2.15,-2.70
4.795364,-0.0225,-0.9971,0.0723,-0.18,0.00,0.06,-87.06,2.15,-2.70
4.824063,-0.0283,-0.9951,0.0737,-0.06,0.00,-0.06,-87.06,2.15,-2.70
4.824063,-0.0229,-0.9966,0.0713,0.06,0.00,-0.18,-87.07,2.15,-2.70
4.854838,-0.0234,-0.9956,0.0762,0.12,0.00,-0.18,-87.07,2.15,-2.70
4.854838,-0.0215,-0.9946,0.0786,0.00,0.00,-0.24,-87.07,2.15,-2.70
4.914862,-0.0200,-0.9951,0.0771,0.00,0.00,0.00,-87.07,2.15,-2.70
4.914862,-0.0234,-0.9941,0.0791,-0.24,0.00,0.00,-87.07,2.15,-2.70
4.945406,-0.0225,-0.9961,0.0737,-0.24,0.00,0.00,-87.07,2.15,-2.70
4.945406,-0.0254,-0.9961,0.0718,-0.06,0.00,0.00,-87.07,2.15,-2.70
4.974787,-0.0273,-0.9951,0.0732,0.00,0.00,-0.18,-87.07,2.15,-2.70
4.974787,-0.0220,-0.9966,0.0752,0.18,0.00,-0.12,-87.07,2.15,-2.70
5.034795,-0.0234,-0.9946,0.0801,0.06,0.00,-0.18,-87.07,2.15,-2.70
5.034795,-0.0205,-0.9951,0.0791,-0.12,0.00,-0.06,-87.07,2.15,-2.70
5.065180,-0.0225,-0.9941,0.0781,-0.18,0.00,0.00,-87.07,2.15,-2.70
5.065180,-0.0244,-0.9956,0.0747,-0.24,0.00,0.00,-87.07,2.15,-2.70
5.095722,-0.0249,-0.9971,0.0713,0.00,0.00,0.00,-87.07,2.15,-2.70
5.095722,-0.0259,-0.9956,0.0737,0.06,0.00,-0.18,-87.07,2.15,-2.70
5.154859,-0.0220,-0.9956,0.0752,0.18,0.00,-0.18,-87.07,2.15,-2.70
5.154859,-0.0220,-0.9937,0.0791,0.12,0.00,-0.12,-87.07,2.15,-2.70
5.184065,-0.0210,-0.9941,0.0801,-0.12,0.00,0.00,-87.07,2.15,-2.70
5.184065,-0.0225,-0.9946,0.0767,-0.24,0.00,0.06,-87.07,2.15,-2.70
5.214783,-0.0264,-0.9956,0.0752,-0.24,0.06,0.00,-87.07,2.15,-2.70
5.214783,-0.0259,-0.9966,0.0723,0.00,0.00,-0.06,-87.07,2.15,-2.70
5.274823,-0.0254,-0.9966,0.0742,0.06,0.00,-0.12,-87.07,2.15,-2.70
5.274823,-0.0244,-0.9956,0.0767,0.06,-0.06,-0.18,-87.07,2.15,-2.70
5.304354,-0.0210,-0.9951,0.0781,0.00,0.00,-0.06,-87.07,2.15,-2.70
5.304354,-0.0229,-0.9946,0.0786,-0.06,0.00,0.00,-87.07,2.15,-2.70
5.334868,-0.0220,-0.9951,0.0762,-0.18,0.00,0.00,-87.07,2.15,-2.70
5.334868,-0.0234,-0.9956,0.0752,-0.12,0.00,0.00,-87.07,2.15,-2.70
5.395966,-0.0254,-0.9956,0.0742,-0.12,0.00,-0.06,-87.07,2.15,-2.70
5.395966,-0.0234,-0.9966,0.0742,0.00,0.00,-0.12,-87.07,2.15,-2.70
5.424032,-0.0244,-0.9956,0.0762,0.00,0.00,-0.12,-87.07,2.15,-2.70
5.424032,-0.0229,-0.9956,0.0776,0.00,0.00,-0.18,-87.07,2.15,-2.70
5.456221,-0.0229,-0.9951,0.0776,0.00,0.00,0.00,-87.07,2.15,-2.70
5.456221,-0.0239,-0.9951,0.0781,-0.06,0.00,-0.06,-87.07,2.15,-2.70
5.514863,-0.0234,-0.9961,0.0752,-0.12,0.00,0.00,-87.07,2.15,-2.70
5.514863,-0.0244,-0.9951,0.0752,-0.12,0.00,-0.12,-87.07,2.15,-2.70
5.544030,-0.0239,-0.9956,0.0742,-0.06,0.00,-0.06,-87.07,2.15,-2.70
5.544030,-0.0234,-0.9946,0.0747,0.00,0.00,-0.06,-87.07,2.15,-2.70
5.574828,-0.0234,-0.9951,0.0781,0.00,0.00,-0.06,-87.07,2.15,-2.70
5.574828,-0.0220,-0.9956,0.0771,-0.06,0.00,0.00,-87.07,2.15,-2.70
5.634819,-0.0229,-0.9951,0.0771,-0.18,0.00,0.00,-87.07,2.15,-2.70
5.634819,-0.0244,-0.9961,0.0747,-0.18,0.00,0.00,-87.07,2.15,-2.70
5.664014,-0.0249,-0.9961,0.0732,-0.06,0.00,0.00,-87.07,2.15,-2.70
5.664014,-0.0254,-0.9956,0.0737,0.00,0.00,-0.18,-87.07,2.15,-2.70
5.696346,-0.0229,-0.9956,0.0757,0.00,0.00,-0.12,-87.07,2.15,-2.70
5.696346,-0.0234,-0.9946,0.0781,0.06,0.00,-0.12,-87.07,2.15,-2.70
5.754796,-0.0220,-0.9946,0.0781,0.00,0.00,-0.18,-87.07,2.15,-2.70
5.754796,-0.0220,-0.9956,0.0781,-0.06,0.00,0.00,-87.07,2.15,-2.70
5.784161,-0.0229,-0.9951,0.0767,-0.18,0.00,0.00,-87.07,2.15,-2.70
5.784161,-0.0239,-0.9956,0.0737,-0.06,0.00,-0.06,-87.07,2.15,-2.70
5.814890,-0.0249,-0.9956,0.0747,0.00,0.00,-0.06,-87.07,2.15,-2.70
5.814890,-0.0234,-0.9961,0.0757,0.00,0.00,-0.12,-87.07,2.15,-2.70
5.874826,-0.0234,-0.9956,0.0757,0.00,0.00,-0.12,-87.07,2.15,-2.70
5.874826,-0.0234,-0.9951,0.0786,0.00,0.00,-0.12,-87.07,2.15,-2.70
5.904313,-0.0220,-0.9956,0.0771,-0.06,0.00,-0.06,-87.07,2.15,-2.70
5.904313,-0.0239,-0.9956,0.0776,-0.06,0.00,-0.06,-87.07,2.15,-2.70
5.964894,-0.0249,-0.9951,0.0752,-0.06,0.00,-0.06,-87.07,2.15,-2.70
5.964894,-0.0244,-0.9946,0.0747,0.00,0.00,-0.06,-87.07,2.15,-2.70
5.994049,-0.0239,-0.9956,0.0767,0.00,0.00,-0.12,-87.07,2.15,-2.70
5.994049,-0.0220,-0.9961,0.0767,0.00,0.00,-0.12,-87.07,2.15,-2.70
6.024785,-0.0229,-0.9946,0.0776,-0.06,0.00,0.00,-87.07,2.15,-2.70
6.024785,-0.0239,-0.9951,0.0771,-0.12,0.00,-0.06,-87.07,2.15,-2.70
6.084850,-0.0234,-0.9961,0.0767,-0.12,0.00,0.00,-87.07,2.15,-2.70
6.084850,-0.0254,-0.9946,0.0757,-0.12,0.00,0.00,-87.07,2.15,-2.70
6.114185,-0.0244,-0.9961,0.0737,0.00,0.00,-0.18,-87.07,2.15,-2.70
6.114185,-0.0254,-0.9961,0.0757,0.06,0.00,-0.12,-87.07,2.15,-2.70
6.144822,-0.0225,-0.9956,0.0762,0.00,0.00,-0.18,-87.07,2.15,-2.70
6.144822,-0.0229,-0.9946,0.0781,0.00,0.00,-0.06,-87.07,2.15,-2.70
6.205113,-0.0234,-0.9956,0.0781,-0.06,0.00,-0.12,-87.07,2.15,-2.70
6.205113,-0.0229,-0.9956,0.0771,-0.12,0.00,-0.06,-87.07,2.15,-2.70
6.234179,-0.0259,-0.9951,0.0762,-0.06,0.00,-0.06,-87.07,2.15,-2.70
6.234179,-0.0244,-0.9956,0.0742,0.00,0.00,-0.12,-87.07,2.15,-2.70
6.266603,-0.0244,-0.9951,0.0757,0.06,0.06,-0.12,-87.07,2.15,-2.70
6.266603,-0.0244,-0.9946,0.0776,0.00,0.00,-0.12,-87.07,2.15,-2.70
6.324864,-0.0215,-0.9951,0.0791,0.00,0.00,-0.12,-87.07,2.15,-2.70
6.324864,-0.0225,-0.9951,0.0781,-0.12,0.00,0.00,-87.07,2.15,-2.70
6.355180,-0.0225,-0.9951,0.0757,-0.24,0.00,0.00,-87.07,2.15,-2.70
6.355180,-0.0249,-0.9956,0.0742,-0.12,0.00,0.00,-87.07,2.15,-2.70
6.384156,-0.0249,-0.9961,0.0737,-0.06,0.00,-0.12,-87.07,2.15,-2.70
6.384156,-0.0239,-0.9956,0.0742,0.00,0.00,-0.18,-87.07,2.15,-2.70
6.444809,-0.0234,-0.9946,0.0776,0.06,0.00,-0.12,-87.07,2.15,-2.70
6.444809,-0.0215,-0.9946,0.0791,0.00,0.00,-0.06,-87.07,2.15,-2.70
6.474621,-0.0229,-0.9956,0.0781,-0.12,0.00,0.06,-87.07,2.15,-2.70
6.474621,-0.0249,-0.9956,0.0762,-0.18,0.06,0.00,-87.07,2.15,-2.70
6.505014,-0.0249,-0.9961,0.0732,-0.12,0.00,-0.06,-87.07,2.15,-2.70
6.505014,-0.0254,-0.9961,0.0723,0.00,0.00,-0.12,-87.07,2.15,-2.70
6.564855,-0.0234,-0.9956,0.0737,0.12,0.00,-0.18,-87.07,2.15,-2.70
6.564855,-0.0215,-0.9951,0.0771,0.06,0.00,-0.18,-87.07,2.15,-2.70
6.594091,-0.0225,-0.9951,0.0796,0.00,0.00,-0.12,-87.07,2.15,-2.70
6.594091,-0.0254,-1.0117,0.0220,1.16,-0.37,0.00,-87.07,2.15,-2.70
6.624849,-0.0889,-0.9863,0.0747,2.62,-1.59,-1.59,-87.05,2.14,-2.70
6.624849,-0.0308,-0.9854,0.0845,0.55,-8.97,-0.67,-87.01,2.10,-2.59
6.684925,-0.0259,-0.9824,0.1196,-2.14,-13.37,-0.06,-87.03,2.08,-2.36
6.684925,0.0020,-1.0000,0.0708,-3.48,-14.10,1.46,-87.08,2.08,-2.09
6.714466,-0.0137,-1.0024,0.0562,-1.40,-10.93,1.16,-87.12,2.09,-1.82
6.714466,-0.0137,-1.0044,0.0625,0.85,-2.75,-1.04,-87.13,2.08,-1.69
6.744814,-0.0107,-0.9951,0.0776,1.65,-1.53,-0.61,-87.09,2.07,-1.66
6.744814,-0.0376,-0.9751,0.1074,-1.28,-5.00,0.43,-87.08,2.06,-1.59
6.805073,-0.0317,-0.9951,0.0825,-2.75,-9.77,0.73,-87.13,2.07,-1.44
6.805073,-0.0166,-1.0044,0.0537,-1.34,-7.02,0.31,-87.17,2.07,-1.26
6.834071,-0.0210,-0.9990,0.0708,0.49,-2.20,-0.85,-87.17,2.05,-1.17
6.834071,-0.0527,-0.9917,0.0869,-0.12,-2.01,-1.16,-87.17,2.04,-1.14
6.866759,-0.0444,-0.9995,0.0469,0.24,-3.23,-1.34,-87.16,2.02,-1.10
6.866759,0.0156,-0.9927,0.0610,0.55,-6.47,-0.49,-87.14,1.98,-0.99
6.924823,-0.0029,-0.9976,0.0762,-1.22,-9.89,0.37,-87.15,1.98,-0.83
6.924823,-0.0420,-0.9858,0.0620,-2.01,-11.90,0.67,-87.17,1.97,-0.62
6.954068,-0.0513,-0.9980,0.0737,-1.59,-15.38,0.00,-87.20,1.97,-0.32
6.954068,0.0410,-0.9863,0.1099,-0.92,-3.42,-0.73,-87.22,1.93,-0.14
6.984881,-0.0083,-1.0083,0.0659,-0.98,-1.89,-0.37,-87.25,1.93,-0.08
6.984881,-0.0010,-1.0010,0.0688,0.00,-1.16,0.31,-87.25,1.93,-0.05
7.044836,0.0000,-0.9902,0.0938,-0.31,-0.92,0.06,-87.25,1.93,-0.03
7.044836,0.0371,-0.9854,0.1074,-2.93,-1.28,0.49,-87.28,1.95,-0.01
7.074069,0.0620,-1.0049,0.0264,-2.69,-5.68,2.81,-87.34,1.99,0.06
7.074069,0.0464,-1.0342,0.0532,-0.79,-10.62,4.82,-87.37,2.04,0.24
7.105086,0.0757,-1.0566,0.0547,-1.16,-8.85,15.93,-87.38,2.24,0.47
7.105086,0.0620,-1.0503,0.0410,-1.04,-1.89,25.09,-87.40,2.65,0.60
7.164885,0.0518,-1.1182,0.0332,2.44,0.98,31.31,-87.39,3.22,0.65
7.164885,0.0591,-1.1685,0.0439,8.18,2.69,36.13,-87.28,3.91,0.65
7.194082,0.0742,-1.1733,0.0972,10.99,-0.31,39.31,-87.07,4.66,0.68
7.194082,0.1001,-1.1426,0.1855,4.09,-5.19,42.18,-86.90,5.48,0.80
7.224854,0.0986,-1.1099,0.1812,-6.84,-6.96,48.71,-86.91,6.37,1.00
7.224854,0.0298,-1.0845,0.1372,-11.96,-10.19,54.26,-87.09,7.40,1.26
7.284991,-0.0337,-1.0146,0.1123,-13.24,-11.35,54.63,-87.30,8.48,1.56
7.284991,-0.0830,-0.9712,0.0708,-13.49,-12.63,51.82,-87.53,9.53,1.88
7.314699,-0.0908,-0.9683,0.0439,-10.74,-14.04,49.38,-87.72,10.51,2.21
7.314699,-0.1011,-0.9565,0.0444,-7.51,-16.30,49.74,-87.83,11.48,2.59
7.374796,-0.0962,-0.9458,0.0684,-7.32,-17.15,51.21,-87.90,12.46,3.00
7.374796,-0.1128,-0.9370,0.0557,-5.43,-15.87,55.24,-87.94,13.51,3.41
7.404368,-0.1699,-0.8989,0.0513,-0.49,-12.94,56.46,-87.91,14.62,3.78
7.404368,-0.2568,-0.8486,0.0479,3.11,-9.22,53.71,-87.81,15.71,4.08
7.434974,-0.3311,-0.8364,0.0356,5.80,-8.00,46.63,-87.65,16.71,4.31
7.434974,-0.3599,-0.8218,0.0615,6.77,-11.11,37.78,-87.44,17.53,4.57
7.494815,-0.4146,-0.8008,0.1025,2.20,-12.63,26.73,-87.26,18.16,4.87
7.494815,-0.4419,-0.7993,0.1108,-3.42,-12.27,13.00,-87.19,18.53,5.17
7.525480,-0.4927,-0.7930,0.1182,-9.46,-13.18,-2.56,-87.23,18.62,5.44
7.525480,-0.4170,-0.8540,0.0728,-12.33,-15.01,-15.44,-87.38,18.40,5.72
7.554765,-0.2837,-0.9106,0.0835,-12.70,-18.98,-18.25,-87.52,18.02,6.05
7.554765,-0.1992,-0.9219,0.0234,-14.22,-22.34,-13.00,-87.68,17.68,6.47
7.615283,-0.1606,-0.9082,-0.0269,-9.03,-25.76,-12.33,-87.78,17.41,6.95
7.615283,-0.0815,-0.8833,-0.0122,-1.71,-27.28,-12.82,-87.73,17.12,7.50
7.644073,-0.0249,-0.8530,-0.0127,2.20,-30.40,-9.16,-87.54,16.86,8.07
7.644073,-0.0283,-0.8086,-0.0229,1.46,-37.11,-6.41,-87.31,16.67,8.77
7.674835,-0.0615,-0.7842,-0.0991,0.61,-47.97,-10.01,-87.06,16.45,9.63
7.674835,0.0054,-0.8359,-0.1128,5.74,-57.07,-10.01,-86.72,16.14,10.72
7.734860,0.1196,-0.9033,-0.0903,19.10,-57.25,4.64,-86.16,15.97,11.91
7.734860,0.1079,-0.9009,-0.0327,38.39,-50.78,27.40,-85.27,16.20,13.06
7.765052,-0.0005,-0.8394,0.0781,52.37,-44.98,44.80,-84.05,16.83,14.13
7.765052,-0.1606,-0.7441,0.1211,57.98,-45.35,52.43,-82.63,17.70,15.19
7.794766,-0.3423,-0.6455,0.1494,60.00,-57.74,41.38,-81.07,18.47,16.42
7.794766,-0.3940,-0.6094,0.2339,56.82,-70.19,21.97,-79.45,18.83,17.89
7.854861,-0.2969,-0.6411,0.2163,52.37,-71.04,12.45,-77.89,18.81,19.43
7.854861,-0.1587,-0.7188,0.0762,70.56,-62.01,25.45,-76.25,18.83,20.89
7.884140,-0.1987,-0.6719,0.0938,103.88,-51.51,45.59,-74.06,19.22,22.24
7.884140,-0.3071,-0.5928,0.2651,123.54,-49.32,54.08,-71.30,19.87,23.58
7.915284,-0.3760,-0.5376,0.3823,121.46,-57.56,47.24,-68.34,20.45,25.03
7.915284,-0.3359,-0.5122,0.3911,108.52,-67.75,35.89,-65.51,20.66,26.61
7.974849,-0.2349,-0.5435,0.3604,100.28,-78.06,32.04,-62.86,20.58,28.33
7.974849,-0.1899,-0.5752,0.2632,114.50,-85.27,37.60,-60.12,20.36,30.20
8.004347,-0.1553,-0.5293,0.3745,137.39,-83.74,41.56,-56.91,20.09,32.19
8.004347,-0.1211,-0.4976,0.4614,152.10,-73.85,48.89,-53.36,19.90,34.09
8.035007,-0.1421,-0.4409,0.5137,156.98,-75.26,61.16,-49.61,19.80,36.04
8.035007,-0.2319,-0.3408,0.6450,151.61,-82.70,69.03,-45.80,19.66,38.21
8.094873,-0.2783,-0.3286,0.6963,141.54,-87.59,70.31,-42.15,19.34,40.53
8.094873,-0.3018,-0.3467,0.6992,147.34,-87.04,71.29,-38.55,18.86,42.85
8.124062,-0.3335,-0.3242,0.8018,159.24,-84.17,68.79,-34.78,18.28,45.10
8.124062,-0.3242,-0.2827,1.0454,157.35,-88.20,64.51,-30.95,17.51,47.22
8.154780,-0.3848,-0.2104,1.3047,134.03,-95.28,57.80,-27.45,16.46,49.25
8.154780,-0.4463,-0.1538,1.4229,91.25,-100.04,40.22,-24.74,15.08,51.02
8.215724,-0.3413,-0.2500,1.2378,60.85,-97.17,26.18,-22.98,13.48,52.40
8.215724,-0.2812,-0.3022,1.0400,69.15,-92.41,25.02,-21.47,11.89,53.57
8.244081,-0.3184,-0.1597,1.0298,78.92,-87.22,17.88,-19.78,10.35,54.60
8.244081,-0.3535,-0.0947,1.1182,73.30,-90.39,0.49,-18.12,8.73,55.32
8.274831,-0.3418,-0.1084,1.2549,53.28,-103.15,-24.84,-16.81,6.79,55.61
8.274831,-0.1172,-0.2417,1.2725,38.51,-101.44,-39.79,-15.94,4.59,55.48
8.334939,0.0679,-0.3594,1.1313,48.03,-84.05,-24.78,-15.12,2.65,55.28
8.334939,0.0371,-0.2847,1.1289,67.26,-62.87,-5.49,-13.93,1.18,55.36
8.364036,-0.0474,-0.1611,1.2227,68.48,-51.70,-3.17,-12.52,0.07,55.53
8.364036,-0.1416,-0.0659,1.2056,51.03,-53.89,-14.47,-11.33,-0.98,55.56
8.394827,-0.1606,-0.0229,1.1445,30.27,-63.66,-38.70,-10.51,-2.22,55.23
8.394827,-0.0303,-0.0425,1.0137,15.99,-75.74,-61.28,-10.02,-3.77,54.43
8.454818,0.2329,-0.1411,0.9429,16.66,-80.93,-66.16,-9.61,-5.53,53.35
8.454818,0.4111,-0.2227,0.9624,28.32,-76.84,-48.77,-9.05,-7.27,52.40
8.484115,0.5122,-0.2974,1.0547,43.33,-60.18,-18.25,-8.25,-8.72,51.90
8.484115,0.4512,-0.2661,1.1382,56.82,-37.90,18.07,-7.25,-9.68,52.05
8.515757,0.3101,-0.1807,1.1973,61.34,-21.36,37.60,-6.17,-10.20,52.72
8.515757,0.2363,-0.1040,1.1992,57.56,-13.49,47.12,-5.15,-10.47,53.62
8.574813,0.1719,-0.0474,1.2188,51.70,-5.62,52.00,-4.26,-10.61,54.66
8.574813,0.1567,-0.0254,1.2017,48.34,9.89,51.09,-3.48,-10.52,55.71
8.604205,0.1572,0.0103,1.1841,50.23,23.86,52.61,-2.70,-10.14,56.76
8.604205,0.1274,-0.0029,1.1499,56.52,31.62,54.81,-1.82,-9.55,57.83
8.634932,0.1133,0.0127,1.2559,56.52,28.75,53.53,-0.87,-8.95,58.95
8.634932,0.1514,0.0312,1.3525,44.31,40.04,56.03,-0.04,-8.29,60.05
8.694870,0.1431,0.0391,1.3682,31.92,51.57,63.48,0.53,-7.39,61.30
8.694870,0.0991,0.0825,1.3223,17.88,55.91,68.60,0.83,-6.34,62.68
8.724085,0.0322,0.1597,1.1777,3.66,49.44,70.25,0.87,-5.35,64.13
8.724085,-0.0386,0.1553,1.0581,1.34,40.65,60.30,0.76,-4.50,65.49
8.784967,-0.0200,0.1216,0.9888,8.24,31.56,46.57,0.76,-3.83,66.58
8.784967,0.0913,0.0776,0.9858,19.29,27.89,40.04,0.98,-3.28,67.45
8.816067,0.1592,0.0884,1.0449,27.65,29.11,42.97,1.41,-2.76,68.30
8.816067,0.1338,0.1299,1.1006,27.77,35.46,45.84,1.92,-2.17,69.23
8.843888,0.0557,0.1758,1.1060,20.32,37.60,43.15,2.37,-1.48,70.18
8.843888,-0.0176,0.1768,1.1108,10.86,32.71,32.10,2.65,-0.83,70.98
8.905248,-0.0098,0.1426,1.1533,7.08,25.76,19.23,2.81,-0.29,71.52
8.905248,0.0083,0.1431,1.2764,3.17,20.14,14.04,2.91,0.14,71.87
8.937397,0.0469,0.1021,1.4346,-3.72,24.66,17.94,2.90,0.54,72.21
8.937397,0.0566,0.0342,1.4424,-9.77,44.56,31.62,2.76,1.19,72.75
8.964027,-0.0752,0.0830,1.3340,-11.54,62.62,41.50,2.55,2.22,73.59
8.964027,-0.2197,0.1499,1.1924,-11.96,67.26,31.13,2.35,3.50,74.43
9.024833,-0.2422,0.1880,1.1699,-16.11,55.48,7.93,2.11,4.71,74.89
9.024833,-0.1553,0.1543,1.1602,-23.86,41.20,-10.19,1.70,5.66,74.90
9.054144,-0.0708,0.1152,1.1763,-29.17,36.87,-17.58,1.14,6.44,74.64
9.054144,-0.0122,0.1289,1.1553,-34.85,39.92,-14.47,0.47,7.21,74.33
9.084884,0.0488,0.0146,1.1143,-44.31,40.83,-1.89,-0.34,8.04,74.18
9.084884,0.0542,-0.0894,1.0952,-51.57,34.12,14.04,-1.29,8.79,74.32
9.144919,-0.0117,-0.0806,1.0376,-50.48,30.33,25.88,-2.25,9.42,74.75
9.144919,-0.1211,-0.0972,0.9214,-39.43,27.40,28.26,-3.08,10.04,75.29
9.174065,-0.1060,-0.2690,0.9180,-16.30,34.24,22.83,-3.55,10.60,75.77
9.174065,-0.1816,-0.0850,0.9170,-0.18,35.83,12.57,-3.63,11.35,76.12
9.205120,-0.1948,-0.0610,0.9722,4.52,19.10,0.79,-3.53,11.94,76.23
9.205120,-0.0942,-0.1694,1.0098,0.67,25.57,-6.71,-3.52,12.36,76.11
9.264842,-0.0410,-0.1313,1.0220,-3.05,26.00,3.85,-3.55,12.88,76.05
9.264842,-0.1201,-0.0322,0.9800,-5.74,24.66,16.30,-3.59,13.39,76.27
9.294084,-0.1753,-0.1040,0.9175,-4.21,29.11,14.89,-3.64,13.94,76.57
9.294084,-0.1494,-0.0938,0.9243,1.10,31.49,16.24,-3.58,14.57,76.85
9.324752,-0.2305,0.0371,0.9424,-3.54,28.38,19.84,-3.50,15.18,77.23
9.324752,-0.3022,0.0215,0.9146,-8.67,25.63,10.07,-3.56,15.72,77.53
9.384893,-0.2002,-0.1050,0.9014,-10.01,29.05,5.13,-3.72,16.27,77.63
9.384893,-0.1318,-0.0737,0.8882,-14.04,27.47,17.46,-3.90,16.85,77.83
9.414044,-0.1807,0.0034,0.8486,-19.04,20.81,25.82,-4.11,17.35,78.29
9.414044,-0.2168,0.0225,0.8130,-19.10,19.29,25.94,-4.35,17.76,78.81
9.444853,-0.2451,0.0220,0.8066,-12.15,19.59,27.16,-4.51,18.18,79.35
9.444853,-0.2446,0.0000,0.8438,-4.33,20.63,27.59,-4.50,18.61,79.90
9.505150,-0.2017,-0.0298,0.8818,0.67,26.18,31.01,-4.34,19.10,80.48
9.505150,-0.1938,0.0020,0.8955,1.89,30.52,37.90,-4.08,19.70,81.19
9.534105,-0.2598,0.0576,0.8989,1.59,33.08,39.00,-3.78,20.38,81.99
9.534105,-0.3032,0.1387,0.9160,-1.46,32.47,30.94,-3.52,21.06,82.71
9.567981,-0.2910,0.1475,0.8833,-7.45,33.51,22.95,-3.43,21.71,83.26
9.567981,-0.2246,0.0933,0.8110,-5.25,33.26,19.17,-3.42,22.41,83.67
9.624842,-0.1646,0.0581,0.7822,5.68,30.58,23.50,-3.26,23.06,84.09
9.624842,-0.2217,0.1128,0.7847,15.20,23.19,30.21,-2.80,23.62,84.68
9.654139,-0.3276,0.1274,0.7676,15.08,10.13,30.46,-2.22,23.96,85.34
9.654139,-0.4717,0.0293,0.6738,15.26,-6.23,32.29,-1.66,23.99,86.01
9.684815,-0.5469,-0.0444,0.8237,21.12,-11.35,33.57,-1.02,23.76,86.74
9.684815,-0.5151,-0.0361,1.0679,24.90,5.55,31.37,-0.25,23.68,87.45
9.744736,-0.4941,0.1191,1.1162,11.05,20.39,20.26,0.36,23.96,88.03
9.744736,-0.5171,0.2451,0.9839,-13.24,14.40,4.88,0.44,24.33,88.31
9.774858,-0.4707,0.2197,0.8428,-26.06,4.15,-14.53,-0.03,24.49,88.20
9.774858,-0.4058,0.1235,0.7090,-23.80,-1.28,-27.28,-0.74,24.52,87.72
9.804324,-0.2744,-0.0840,0.6865,-10.13,-4.94,-24.72,-1.33,24.45,87.11
9.804324,-0.2471,-0.1968,0.7578,6.10,-1.95,-2.32,-1.47,24.37,86.81
9.864039,-0.4204,-0.1079,0.8301,16.91,5.25,12.88,-1.15,24.40,86.98
9.864039,-0.5908,-0.0137,0.8750,15.93,8.73,7.63,-0.70,24.55,87.23
9.894046,-0.6475,0.0293,0.9136,4.03,6.53,-8.00,-0.48,24.71,87.23
9.894046,-0.5757,-0.0664,0.8926,-9.03,2.01,-21.73,-0.70,24.79,86.87
9.924068,-0.3682,-0.2197,0.9136,-12.33,3.72,-17.21,-1.12,24.83,86.41
9.924068,-0.2925,-0.1953,0.9136,-8.61,14.83,6.41,-1.38,25.02,86.29
9.984097,-0.3887,-0.0396,0.8584,-4.15,22.34,19.84,-1.36,25.41,86.62
9.984097,-0.4717,0.0566,0.8159,-2.08,22.28,17.33,-1.24,25.86,87.06
10.014072,-0.4302,0.0806,0.8286,-3.97,18.98,10.31,-1.16,26.27,87.35
10.014072,-0.3809,0.0659,0.7959,-8.54,12.45,6.35,-1.20,26.59,87.54
10.044101,-0.2964,0.0010,0.7559,-7.51,5.86,6.23,-1.32,26.76,87.66
10.044101,-0.2832,0.0098,0.7368,-1.83,0.49,14.53,-1.31,26.82,87.90
10.104498,-0.3315,0.0342,0.7676,2.50,-6.35,18.74,-1.12,26.76,88.28
10.104498,-0.4028,0.0649,0.8428,2.44,-12.88,17.09,-0.88,26.55,88.69
10.163958,-0.4277,0.0601,0.9189,-2.32,-15.32,8.54,-0.75,26.25,88.97
10.163958,-0.3931,0.0029,0.9199,-7.02,-17.15,3.42,-0.81,25.92,89.09
10.194444,-0.3003,-0.0718,0.9487,-7.20,-15.93,4.88,-0.92,25.58,89.15
10.194444,-0.3018,-0.0674,0.9541,-4.64,-13.49,15.01,-0.94,25.29,89.38
10.224066,-0.3774,0.0161,0.9604,-2.99,-10.86,15.50,-0.87,25.04,89.74
10.224066,-0.3984,0.0776,0.9609,-8.73,-14.53,6.90,-0.87,24.79,89.98
10.254077,-0.3506,0.0439,0.9009,-13.67,-20.39,0.00,-1.09,24.43,90.04
10.254077,-0.3105,-0.0039,0.8828,-8.12,-22.71,0.92,-1.32,23.99,90.03
10.314061,-0.3604,0.0186,0.8960,-1.95,-24.35,2.81,-1.38,23.52,90.08
10.314061,-0.4067,0.0488,0.9521,-2.20,-30.21,-1.71,-1.41,22.97,90.10
10.344030,-0.4238,0.0396,0.9707,-6.35,-32.23,-7.93,-1.53,22.33,89.99
10.344030,-0.4521,0.0371,0.9199,-6.41,-29.97,-14.40,-1.75,21.70,89.75
10.374049,-0.4570,0.0469,0.8745,-2.93,-26.61,-21.67,-1.98,21.13,89.36
10.374049,-0.4009,-0.0259,0.9019,0.73,-24.54,-23.86,-2.16,20.62,88.86
10.434180,-0.3672,-0.0571,0.9546,-0.49,-22.71,-18.62,-2.30,20.13,88.42
10.434180,-0.4077,-0.0264,0.9497,-4.70,-18.92,-16.60,-2.47,19.71,88.07
10.464093,-0.4336,0.0020,0.9043,-6.53,-15.26,-22.77,-2.71,19.36,87.67
10.464093,-0.3740,-0.0298,0.8999,-6.77,-16.48,-29.60,-3.02,19.04,87.11
10.494037,-0.2847,-0.0806,0.9404,-7.45,-16.97,-26.61,-3.35,18.68,86.51
10.494037,-0.2695,-0.0864,0.9458,-5.98,-16.66,-21.00,-3.63,18.33,86.03
10.554121,-0.2764,-0.0894,0.9868,-1.40,-18.07,-16.17,-3.81,17.96,85.65
10.554121,-0.2959,-0.1006,1.0645,3.48,-15.14,-13.67,-3.86,17.61,85.37
10.584915,-0.2998,-0.0786,1.1265,1.46,-11.72,-15.08,-3.88,17.33,85.08
10.584915,-0.2842,-0.0371,1.1279,-6.53,-7.32,-17.70,-4.03,17.12,84.74
10.613992,-0.3047,0.0083,1.0381,-9.46,-4.64,-21.67,-4.31,16.99,84.35
10.613992,-0.2344,0.0093,0.9756,-9.95,-4.94,-25.15,-4.64,16.87,83.85
10.674098,-0.1802,0.0034,0.8901,-6.96,-4.58,-21.36,-4.94,16.74,83.37
10.674098,-0.1348,-0.0195,0.8184,1.16,-5.49,-16.54,-5.11,16.62,82.98
10.704506,-0.0781,-0.0781,0.8354,10.01,-7.26,-6.59,-5.05,16.47,82.74
10.704506,-0.1001,-0.0889,0.9302,12.63,-12.39,5.74,-4.80,16.28,82.76
10.734570,-0.2134,-0.0923,0.9644,10.25,-16.30,11.54,-4.52,15.99,82.97
10.734570,-0.3027,-0.0962,1.0122,12.45,-15.56,7.69,-4.22,15.67,83.20
10.794052,-0.3340,-0.1177,1.0767,10.50,-12.94,0.00,-3.96,15.39,83.29
10.794052,-0.2979,-0.1948,1.1255,6.53,-11.72,-4.03,-3.80,15.14,83.24
10.824112,-0.2607,-0.2349,1.1699,-1.89,-9.83,-0.31,-3.76,14.92,83.20
10.824112,-0.3071,-0.1636,1.1406,-10.07,-4.27,3.85,-3.87,14.78,83.25
10.854109,-0.3311,-0.0444,1.0728,-16.05,0.73,-1.77,-4.14,14.74,83.29
10.854109,-0.2607,0.0083,0.9829,-17.58,2.93,-4.15,-4.50,14.78,83.21
10.913936,-0.2202,0.0474,0.9175,-13.00,5.43,-1.53,-4.82,14.86,83.14
10.913936,-0.2061,0.0801,0.8926,-7.87,5.25,0.00,-5.03,14.97,83.12
10.945062,-0.1758,0.0601,0.8872,-2.75,4.70,1.83,-5.13,15.07,83.13
10.945062,-0.2002,0.0488,0.8813,2.81,4.70,3.54,-5.11,15.16,83.19
10.974884,-0.1992,0.0215,0.9209,5.98,3.72,1.16,-5.00,15.25,83.24
10.974884,-0.1719,-0.0420,0.9590,5.13,3.17,2.99,-4.88,15.32,83.27
11.034982,-0.2163,-0.0742,0.9741,5.07,1.59,6.35,-4.75,15.37,83.36
11.034982,-0.2661,-0.0630,1.0176,2.62,-0.37,7.20,-4.63,15.39,83.51
11.065195,-0.2847,-0.0659,1.0498,-1.59,-2.14,5.86,-4.58,15.36,83.64
11.065195,-0.3066,-0.0688,1.0693,-2.81,0.00,7.39,-4.60,15.34,83.78
11.094077,-0.3452,-0.0454,1.0869,-0.55,4.76,9.77,-4.59,15.40,83.96
11.094077,-0.3828,-0.0327,1.1323,3.78,12.70,12.39,-4.49,15.58,84.18
11.155785,-0.4146,-0.0049,1.2119,3.42,23.07,12.33,-4.35,15.95,84.42
11.155785,-0.4434,-0.0103,1.2271,1.10,38.64,10.13,-4.25,16.58,84.62
11.185036,-0.4609,-0.0195,1.1709,4.03,52.55,6.71,-4.17,17.52,84.75
11.185036,-0.4316,-0.0244,1.1836,5.49,59.75,2.93,-4.04,18.65,84.79
11.213759,-0.3921,-0.0420,1.2041,0.73,67.26,3.30,-3.98,19.93,84.79
11.213759,-0.3633,-0.0537,1.2080,-7.26,73.79,3.30,-4.03,21.35,84.80
11.274026,-0.2778,-0.0771,1.1831,-14.89,81.67,10.01,-4.25,22.91,84.84
11.274026,-0.3540,-0.0376,1.0757,-13.92,92.16,23.86,-4.44,24.66,85.14
11.304431,-0.5898,0.0234,0.9839,-4.70,96.80,19.78,-4.44,26.60,85.55
11.304431,-0.6167,0.0161,1.1123,-6.59,96.25,2.38,-4.47,28.53,85.66
11.335078,-0.4668,-0.1147,1.1060,-13.98,107.91,7.45,-4.72,30.55,85.61
11.335078,-0.5591,-0.1533,1.0278,-6.65,115.78,19.04,-4.84,32.83,85.78
11.394094,-0.7422,0.0054,1.0518,-6.41,116.46,13.85,-4.80,35.17,86.05
11.394094,-0.7896,0.0806,1.0815,-20.51,121.52,-6.59,-5.11,37.55,85.96
11.424032,-0.6777,-0.0156,1.0122,-30.33,127.56,-15.75,-6.00,40.02,85.40
11.424032,-0.6270,-0.0664,0.9556,-23.86,131.16,-11.05,-6.99,42.58,84.73
11.454400,-0.6572,-0.0220,0.9414,-16.78,138.55,-3.30,-7.76,45.24,84.17
11.454400,-0.5942,-0.0781,0.8726,-5.07,146.85,9.64,-8.27,48.08,83.77
11.514048,-0.7358,-0.0444,0.7744,14.04,153.56,21.61,-8.16,51.11,83.78
11.514048,-0.8379,0.0259,0.7910,25.88,160.58,11.78,-7.74,54.27,83.75
11.544039,-0.8228,0.0000,0.8574,21.97,167.36,-4.27,-7.65,57.54,83.26
11.544039,-0.7676,-0.0503,0.7422,11.72,167.91,-12.33,-8.25,60.86,82.17
11.604449,-0.6343,-0.1958,0.5410,13.24,166.93,-3.30,-9.17,64.15,80.88
11.604449,-0.6729,-0.2158,0.4697,32.29,167.11,18.92,-9.31,67.47,80.21
11.634909,-0.8252,-0.1177,0.5239,47.12,173.65,30.58,-8.25,70.91,80.46
11.634909,-0.9600,0.0166,0.5005,50.11,183.17,26.98,-6.54,74.53,81.22
11.663984,-1.0400,0.1133,0.4663,44.68,183.29,7.57,-5.30,78.22,81.50
11.663984,-0.9565,0.1440,0.4395,26.86,182.86,-17.40,-6.71,81.84,79.34
11.724039,-0.7202,-0.0386,0.2144,21.48,185.42,-21.30,-14.27,85.42,71.27
11.724039,-0.6133,-0.1289,0.0498,32.10,183.17,-8.91,-44.76,88.65,40.18
11.754141,-0.5903,-0.1772,0.0083,39.98,174.07,6.90,-144.96,88.29,-60.79
11.754141,-0.6826,-0.1147,-0.0391,44.56,169.37,23.25,-168.91,85.25,-85.66
11.785223,-0.7759,-0.0327,-0.0508,49.13,165.10,25.94,-176.17,82.03,-93.93
11.785223,-0.8037,-0.0054,-0.0830,44.49,159.61,21.67,-179.05,78.83,-97.82
11.843991,-0.7876,-0.0356,-0.1445,43.03,156.68,19.41,179.71,75.69,-99.98
11.843991,-0.7886,0.0000,-0.1841,44.07,160.03,19.35,179.10,72.54,-101.54
11.874081,-0.8032,0.0068,-0.2939,45.72,161.38,17.64,178.87,69.33,-102.73
11.874081,-0.8965,0.0439,-0.2729,41.02,163.45,-5.07,179.34,66.09,-103.20
11.904368,-0.7349,0.0161,-0.3120,15.44,159.97,-40.22,-179.27,62.84,-102.27
11.904368,-0.4761,-0.1206,-0.5801,-1.71,148.50,-53.89,-177.74,59.71,-100.62
11.965178,-0.2520,-0.2104,-0.7729,-4.46,134.46,-54.57,-176.42,56.82,-98.97
11.965178,-0.1426,-0.2197,-0.8867,-6.16,110.11,-44.62,-175.46,54.28,-97.67
11.994132,-0.1528,-0.1968,-0.9194,-7.69,75.81,-34.18,-174.86,52.38,-96.75
11.994132,-0.2139,-0.1479,-0.8882,-9.70,44.56,-25.39,-174.49,51.15,-96.05
12.024073,-0.3169,-0.0864,-0.8750,-9.28,15.32,-20.32,-174.24,50.52,-95.47
12.024073,-0.4375,0.0132,-0.7935,-10.56,-10.07,-19.78,-173.98,50.44,-94.88
12.085575,-0.5059,0.0498,-0.7778,-12.27,-31.25,-20.75,-173.67,50.82,-94.17
12.085575,-0.5244,0.0083,-0.7725,-8.24,-45.35,-20.02,-173.26,51.55,-93.37
12.114041,-0.5034,-0.0850,-0.7129,-3.42,-52.86,-13.55,-172.76,52.49,-92.59
12.114041,-0.5327,-0.1021,-0.6641,-2.38,-57.31,-3.72,-172.39,53.56,-92.07
12.144105,-0.5601,-0.0352,-0.6665,-6.59,-62.44,-3.11,-172.16,54.73,-91.68
12.144105,-0.5498,-0.0469,-0.7217,-10.74,-72.33,-10.50,-171.84,56.04,-91.06
12.204447,-0.4517,-0.1528,-0.7163,-13.31,-88.87,-10.62,-171.32,57.58,-90.15
12.204447,-0.2939,-0.3359,-0.6719,-7.08,-103.27,21.48,-171.11,59.52,-89.64
12.235796,-0.6108,-0.1289,-0.5718,6.77,-103.39,51.45,-171.88,61.71,-90.56
12.235796,-0.9341,0.1392,-0.3613,5.43,-103.15,37.41,-172.87,63.90,-91.86
12.264073,-0.9756,0.1606,-0.3071,-14.95,-109.25,2.08,-173.07,66.04,-91.98
12.264073,-0.7866,-0.0229,-0.3965,-23.01,-116.82,-11.54,-172.35,68.26,-90.74
12.323861,-0.7017,-0.1182,-0.3916,-10.62,-114.69,1.77,-171.45,70.55,-89.41
12.323861,-0.7715,-0.0547,-0.2842,-2.81,-114.26,16.24,-170.97,72.82,-88.80
12.354166,-0.8506,-0.0015,-0.2441,-6.53,-120.61,16.66,-170.78,75.19,-88.49
12.354166,-0.8994,0.0269,-0.1973,-5.92,-120.06,11.60,-170.24,77.62,-87.81
12.384063,-0.9307,0.0049,-0.1431,-4.52,-118.23,0.18,-168.51,79.96,-85.93
12.384063,-0.8901,-0.0269,-0.0308,-7.39,-120.67,-2.99,-164.79,82.26,-82.06
12.444076,-0.8823,-0.0669,-0.0063,-9.16,-122.07,-0.92,-158.36,84.53,-75.40
12.444076,-0.8682,-0.0923,0.0195,-14.65,-130.37,-0.49,-144.47,86.72,-61.23
12.474053,-0.7544,-0.2095,0.0781,-11.17,-138.31,16.85,-104.39,88.42,-20.81
12.474053,-0.9219,-0.0933,0.1143,-1.53,-124.02,31.43,-41.48,88.04,42.25
12.504394,-1.1240,0.1611,0.2573,-4.09,-114.26,15.81,-16.80,86.14,66.97
12.504394,-1.1182,0.1494,0.1934,-19.59,-115.72,-17.94,-12.18,83.94,71.86
12.564077,-0.8037,-0.1162,0.2236,-27.53,-129.64,-24.17,-12.89,81.41,71.66
12.564077,-0.6611,-0.2612,0.2544,-12.27,-132.93,11.96,-11.40,78.77,73.59
12.594015,-0.8574,-0.0215,0.3423,3.60,-123.41,38.70,-7.47,76.31,77.68
12.594015,-1.1113,0.2690,0.3638,0.31,-117.00,21.30,-4.34,73.99,80.85
12.623942,-1.0981,0.3218,0.3721,-21.00,-125.85,-24.84,-4.34,71.59,81.05
12.623942,-0.6738,-0.1191,0.3555,-24.54,-145.32,-35.10,-6.32,68.80,79.52
12.684120,-0.4868,-0.3306,0.5024,5.68,-135.74,17.33,-6.37,65.93,79.66
12.684120,-0.8745,-0.0205,0.6089,26.55,-119.02,47.42,-4.08,63.47,81.79
12.713751,-1.1636,0.2866,0.7549,10.07,-116.15,20.69,-2.15,61.16,83.49
12.713751,-1.1040,0.2446,0.7153,-25.70,-127.50,-28.08,-2.49,58.74,83.31
12.744441,-0.8032,-0.0444,0.5996,-32.10,-134.28,-45.90,-4.24,56.07,81.98
12.744441,-0.5273,-0.2700,0.6147,-12.51,-123.11,-22.64,-5.48,53.43,81.01
12.804216,-0.6299,-0.2085,0.6265,6.41,-110.11,3.91,-5.45,51.13,81.07
12.804216,-0.7051,-0.1504,0.7104,10.50,-113.16,8.00,-4.93,48.92,81.51
12.836413,-0.7744,-0.0723,0.8320,4.52,-115.30,1.71,-4.49,46.64,81.88
12.836413,-0.7607,-0.0488,0.9058,-15.32,-127.26,-20.02,-4.67,44.21,81.78
12.866932,-0.4790,-0.2471,0.9077,-24.17,-124.69,-18.92,-5.38,41.63,81.38
12.866932,-0.5410,-0.1865,0.8511,-14.16,-109.80,-8.36,-5.82,39.28,81.30
12.924136,-0.5005,-0.1538,0.9810,-9.22,-106.93,-9.09,-6.04,37.13,81.28
12.924136,-0.4663,-0.1475,1.1226,-18.80,-110.53,-4.03,-6.27,34.95,81.34
12.954129,-0.5171,-0.1064,1.0601,-27.10,-113.46,-2.14,-6.65,32.71,81.52
12.954129,-0.5171,-0.0283,1.0132,-26.73,-112.98,-8.85,-7.12,30.43,81.65
13.014052,-0.3813,-0.0537,1.0791,-26.06,-103.94,-14.77,-7.66,28.24,81.61
13.014052,-0.3330,-0.0957,1.0459,-28.32,-98.82,-12.02,-8.23,26.21,81.57
13.044034,-0.2754,-0.1470,1.0361,-25.45,-99.30,-4.39,-8.73,24.22,81.64
13.044034,-0.3350,-0.1064,1.0234,-21.48,-102.42,1.59,-9.10,22.23,81.93
13.074071,-0.3130,-0.0869,1.0640,-17.58,-103.82,2.56,-9.37,20.16,82.26
13.074071,-0.3271,-0.0889,1.1152,-12.76,-94.42,4.39,-9.55,18.20,82.63
13.134048,-0.3862,-0.0854,1.1118,-11.47,-86.18,1.65,-9.69,16.44,82.97
13.134048,-0.3652,-0.1206,1.1367,-12.45,-79.47,-2.87,-9.86,14.80,83.19
13.164018,-0.3325,-0.1421,1.1079,-16.97,-79.65,-7.02,-10.12,13.22,83.33
13.164018,-0.2642,-0.1709,1.0898,-20.63,-79.59,-10.13,-10.49,11.60,83.40
13.194153,-0.1709,-0.1870,1.1123,-22.03,-71.04,-7.08,-10.90,10.08,83.46
13.194153,-0.1626,-0.1841,1.0972,-21.55,-65.12,-2.69,-11.32,8.73,83.60
13.254008,-0.1831,-0.1533,1.1006,-18.92,-59.63,3.54,-11.69,7.50,83.83
13.254008,-0.2808,-0.0884,1.1064,-13.85,-51.21,4.52,-11.99,6.42,84.12
13.284063,-0.2959,-0.0693,1.1162,-11.17,-41.44,-2.62,-12.21,5.52,84.31
13.284063,-0.2358,-0.0962,1.0806,-8.06,-27.65,-6.84,-12.40,4.82,84.34
13.314081,-0.1963,-0.1343,1.0527,-4.39,-19.04,-13.24,-12.52,4.35,84.23
13.314081,-0.1060,-0.1943,1.0630,-8.30,-17.52,-11.90,-12.66,3.94,84.03
13.374162,-0.0571,-0.2383,1.0234,-8.30,-17.76,-6.47,-12.84,3.55,83.91
13.374162,-0.0933,-0.2148,1.0151,-5.19,-13.12,1.40,-12.97,3.24,83.94
13.404456,-0.1533,-0.1934,1.0264,0.37,-5.37,4.27,-13.01,3.07,84.03
13.404456,-0.1792,-0.1851,1.1147,5.19,5.07,7.63,-12.94,3.09,84.15
13.434017,-0.2124,-0.1279,1.1738,4.58,18.98,10.56,-12.83,3.36,84.29
13.434017,-0.2627,-0.0815,1.1260,5.49,29.54,6.16,-12.72,3.89,84.36
13.494026,-0.1738,-0.1665,1.1050,8.67,40.28,5.37,-12.58,4.59,84.31
13.494026,-0.1387,-0.2310,1.1089,16.97,52.49,17.64,-12.32,5.56,84.36
13.524099,-0.2354,-0.1650,1.1704,20.57,61.58,26.79,-11.90,6.78,84.60
13.524099,-0.3267,-0.1133,1.2046,17.64,69.82,25.82,-11.48,8.17,84.90
13.554105,-0.3892,-0.1431,1.1768,20.20,81.12,20.75,-11.08,9.74,85.11
13.554105,-0.4155,-0.1504,1.3066,23.56,94.42,12.94,-10.61,11.53,85.15
13.614077,-0.3154,-0.1812,1.2778,14.47,110.72,7.20,-10.26,13.61,85.00
13.614077,-0.2314,-0.2310,1.0869,11.90,113.65,10.01,-10.05,15.88,84.81
13.644054,-0.1743,-0.2407,1.0093,10.56,105.71,22.89,-9.83,18.10,84.80
13.644054,-0.3452,-0.1562,1.0103,13.18,100.46,32.84,-9.49,20.21,85.12
13.681378,-0.4580,-0.1021,1.0977,12.02,104.25,26.00,-9.11,22.31,85.45
13.681378,-0.4253,-0.1353,1.1465,9.28,113.22,23.25,-8.81,24.53,85.65
13.734013,-0.4468,-0.1294,1.1157,7.26,118.77,25.57,-8.55,26.90,85.87
13.734013,-0.5566,-0.0718,1.1270,4.70,121.03,22.46,-8.33,29.36,86.09
13.764073,-0.6201,-0.0117,1.1460,-1.77,126.59,8.00,-8.28,31.83,86.11
13.764073,-0.4878,-0.0708,0.9673,-2.99,134.34,6.53,-8.48,34.46,85.86
13.794033,-0.4956,-0.1211,0.8125,10.13,133.61,13.24,-8.50,37.15,85.70
13.794033,-0.6265,-0.0938,0.9180,20.20,132.75,17.40,-8.15,39.83,85.72
13.853794,-0.7563,-0.0278,1.0542,9.46,129.88,4.70,-7.88,42.47,85.62
13.853794,-0.6924,-0.0918,0.9736,1.65,135.50,-2.26,-8.09,45.09,85.20
13.884005,-0.6772,-0.1274,0.8750,10.50,144.41,3.54,-8.31,47.88,84.74
13.884005,-0.7402,-0.0913,0.8892,18.68,151.79,5.68,-8.27,50.84,84.38
13.914042,-0.7817,-0.0483,0.8613,16.54,154.42,0.73,-8.26,53.90,83.91
13.914042,-0.8047,-0.0664,0.7798,12.39,147.77,-7.08,-8.59,56.90,83.16
13.974165,-0.7910,-0.0874,0.8042,9.89,146.61,-14.04,-9.31,59.77,82.04
13.974165,-0.7241,-0.1270,0.6982,11.35,154.79,-7.39,-10.25,62.72,80.71
14.004506,-0.6753,-0.1694,0.5601,22.40,159.91,2.50,-11.01,65.82,79.48
14.004506,-0.7095,-0.1538,0.5039,31.13,158.69,17.03,-11.22,69.01,78.66
14.034469,-0.8677,-0.0503,0.5552,32.65,152.83,15.81,-11.00,72.13,78.18
14.034469,-0.8711,-0.0039,0.5791,21.36,153.69,5.68,-11.46,75.17,77.12
14.094036,-0.7466,-0.1021,0.3872,25.15,159.30,7.93,-12.90,78.26,75.18
14.094036,-0.7749,-0.0522,0.2363,36.62,163.51,16.42,-14.52,81.49,72.89
14.124022,-0.8711,0.0405,0.2031,41.08,156.62,12.76,-17.35,84.67,69.23
14.124022,-0.8184,-0.0005,0.1865,42.48,151.06,5.80,-28.32,87.59,57.38
14.154282,-0.7549,-0.0654,0.1201,44.86,149.29,9.16,-97.69,89.49,-12.88
14.154282,-0.7671,-0.0586,0.0122,51.94,148.80,16.42,-162.85,87.51,-79.05
14.214054,-0.7778,-0.0161,-0.0103,55.73,147.03,17.88,-174.10,84.69,-91.43
14.214054,-0.8496,0.0327,-0.0112,52.61,144.41,17.40,-177.93,81.84,-96.40
14.244090,-0.8965,0.0020,-0.0845,47.85,141.42,2.93,-178.90,79.00,-98.40
14.244090,-0.7495,-0.1255,-0.0972,46.20,141.24,2.81,-178.62,76.19,-99.08
14.274097,-0.8135,-0.1597,-0.1655,49.32,140.38,10.56,-178.69,73.39,-100.15
14.274097,-0.8774,-0.0942,-0.1167,41.93,143.68,6.04,-178.71,70.56,-101.17
14.334060,-0.9668,-0.0254,-0.2002,21.00,140.69,-16.30,-178.28,67.71,-101.37
14.334060,-0.8564,-0.0586,-0.3525,0.24,133.12,-49.19,-176.99,64.95,-100.18
14.364037,-0.5903,-0.1372,-0.5732,-14.59,122.99,-70.56,-175.23,62.28,-98.02
14.364037,-0.3052,-0.1021,-0.7769,-29.42,105.22,-76.72,-173.57,59.83,-95.60
14.424181,-0.1353,-0.0332,-1.0605,-41.81,74.89,-79.71,-172.25,57.82,-93.18
14.424181,0.1436,-0.2100,-1.2119,-32.59,40.53,-60.00,-171.17,56.48,-90.94
14.454590,0.0718,-0.2183,-1.1426,-9.16,15.62,-15.01,-170.69,55.82,-89.88
14.454590,-0.2207,-0.0718,-0.9077,7.69,-8.48,14.65,-170.76,55.78,-89.98
14.484060,-0.5654,0.1084,-0.6260,13.31,-23.01,25.70,-171.08,56.20,-90.67
14.484060,-0.8081,0.2158,-0.5171,8.30,-29.05,8.18,-171.24,56.78,-91.15
14.544010,-0.7524,0.0884,-0.5146,1.95,-36.99,-13.18,-170.84,57.42,-90.78
14.544010,-0.5889,-0.0728,-0.5732,-0.92,-41.56,-16.05,-170.13,58.14,-89.93
14.574137,-0.4814,-0.1616,-0.6812,0.73,-51.33,-10.31,-169.43,58.99,-89.11
14.574137,-0.3291,-0.2397,-0.6885,-1.71,-66.10,3.30,-168.88,60.12,-88.47
14.604761,-0.3984,-0.1606,-0.7290,-2.62,-78.86,18.92,-168.82,61.61,-88.35
14.604761,-0.5049,-0.0698,-0.7202,-1.53,-94.18,17.03,-168.84,63.38,-88.32
14.664067,-0.5229,-0.0479,-0.6108,-1.95,-108.09,17.82,-168.65,65.45,-88.08
14.664067,-0.5767,-0.0576,-0.5342,1.34,-119.75,21.67,-168.38,67.77,-87.78
14.696145,-0.6685,-0.0557,-0.4185,4.15,-127.50,23.13,-168.02,70.28,-87.45
14.696145,-0.7617,-0.0151,-0.2188,2.01,-133.36,23.38,-167.48,72.93,-86.97
14.724030,-0.9106,0.0283,-0.1294,-7.81,-136.66,10.07,-166.38,75.64,-85.76
14.724030,-0.9282,0.0000,-0.1172,-12.63,-132.57,-4.33,-163.72,78.23,-82.80
14.784058,-0.8418,-0.0688,-0.0493,-13.43,-136.29,-10.01,-158.48,80.69,-77.21
14.784058,-0.8091,-0.1470,0.0049,-17.33,-137.88,-5.68,-149.79,83.06,-68.09
14.844281,-0.8130,-0.1689,-0.0356,-9.52,-128.11,5.80,-135.93,85.16,-53.85
14.844281,-0.8032,-0.1538,0.0234,-2.14,-130.19,13.18,-111.35,86.72,-29.09
14.848152,-0.8804,-0.0869,0.1587,-2.50,-132.14,21.42,-71.72,87.13,10.64
14.848152,-0.9536,0.0190,0.3081,-14.34,-137.94,17.82,-39.10,85.81,43.50
14.905012,-0.9883,0.0117,0.2290,-22.28,-132.75,7.02,-24.60,83.58,58.49
14.905012,-0.9116,-0.0444,0.2363,-13.67,-128.42,1.10,-18.53,81.15,64.98
14.964231,-0.9219,0.0166,0.4106,-11.60,-128.05,3.05,-14.96,78.70,68.83
14.964231,-1.0391,0.0986,0.3882,-27.65,-133.67,-14.04,-13.28,76.14,70.97
14.966490,-0.8179,-0.0752,0.3364,-28.56,-139.53,-25.33,-13.46,73.34,71.40
14.966490,-0.7642,-0.1729,0.3340,-9.09,-133.61,-9.70,-13.20,70.60,72.09
15.024125,-0.8135,-0.1187,0.5503,5.55,-126.83,3.11,-12.01,68.04,73.34
15.024125,-0.8896,-0.0337,0.6631,-5.74,-125.73,3.36,-10.81,65.58,74.63
15.055043,-0.9277,0.0166,0.5776,-21.67,-128.11,-13.55,-10.46,63.07,75.34
15.055043,-0.7427,-0.0923,0.4980,-26.00,-135.74,-25.15,-10.96,60.39,75.34
15.084135,-0.5000,-0.2979,0.5049,-4.94,-136.66,-1.95,-11.06,57.63,75.62
15.084135,-0.5532,-0.1948,0.6987,17.94,-127.69,34.00,-9.76,55.08,76.98
15.144063,-0.8169,0.0342,0.8423,18.19,-124.45,41.38,-7.85,52.70,78.88
15.144063,-1.0195,0.2100,0.9038,4.94,-118.53,11.66,-6.62,50.34,80.15
15.174168,-0.9805,0.2554,0.8770,-21.91,-121.64,-37.05,-6.84,47.94,80.06
15.174168,-0.5864,-0.0400,0.7222,-40.89,-134.28,-67.38,-8.42,45.27,78.83
15.205473,-0.0776,-0.4736,0.6499,-19.35,-133.48,-31.98,-9.73,42.43,77.85
15.205473,-0.0957,-0.5122,0.7388,22.83,-125.43,35.22,-9.28,39.90,78.45
15.264068,-0.4702,-0.2153,1.0518,38.33,-120.91,72.69,-7.45,37.60,80.31
15.264068,-0.9175,0.0757,1.2749,21.36,-115.48,53.22,-5.71,35.35,82.22
15.294422,-1.0107,0.1587,1.2998,-14.34,-111.76,-3.11,-5.21,33.13,82.99
15.294422,-0.6333,-0.0781,1.1572,-42.42,-114.38,-38.39,-6.05,30.84,82.57
15.324208,-0.2480,-0.3403,1.0190,-39.67,-111.27,-25.94,-7.20,28.51,82.00
15.324208,-0.1782,-0.3755,0.9819,-16.85,-104.06,8.79,-7.72,26.36,82.08
15.384097,-0.3545,-0.1572,1.0938,-4.03,-98.27,30.15,-7.58,24.41,82.81
15.384097,-0.5762,0.0527,1.1675,-9.40,-95.09,15.87,-7.39,22.54,83.58
15.414092,-0.5620,0.1006,1.1787,-27.22,-93.87,-17.15,-7.68,20.66,83.77
15.414092,-0.3022,-0.0537,1.1157,-43.88,-97.78,-39.06,-8.56,18.68,83.35
15.444070,-0.0571,-0.2100,0.9927,-43.27,-98.39,-28.56,-9.60,16.63,82.88
15.444070,-0.0469,-0.2065,0.9346,-24.54,-95.70,-4.64,-10.28,14.67,82.86
15.505641,-0.2314,-0.0669,1.0312,-10.80,-90.39,5.68,-10.52,12.84,83.22
15.505641,-0.3213,-0.0405,1.1514,-11.11,-87.40,-8.30,-10.66,11.07,83.49
15.534073,-0.2593,-0.1294,1.1982,-23.44,-82.70,-21.97,-11.01,9.34,83.44
15.534073,-0.1514,-0.2441,1.1284,-28.20,-79.71,-23.32,-11.58,7.66,83.24
15.564094,-0.0898,-0.2998,1.0977,-20.81,-73.55,-8.91,-12.09,6.09,83.19
15.564094,-0.2437,-0.1963,1.1289,-10.56,-62.26,4.58,-12.37,4.75,83.44
15.624123,-0.3628,-0.1133,1.2056,-8.61,-51.27,-3.54,-12.51,3.65,83.68
15.624123,-0.2803,-0.1538,1.2290,-14.59,-39.73,-12.15,-12.75,2.72,83.68
15.655693,-0.2085,-0.1719,1.1362,-17.76,-30.40,-12.27,-13.09,2.00,83.57
15.655693,-0.1377,-0.1694,1.0610,-14.83,-23.74,-9.40,-13.41,1.43,83.46
15.684051,-0.0815,-0.1768,1.0112,-9.89,-17.33,-5.07,-13.66,1.00,83.41
15.684051,-0.0479,-0.1831,0.9951,-5.74,-12.63,-1.83,-13.80,0.71,83.40
15.743903,-0.0747,-0.1714,1.0210,-2.62,-9.83,1.53,-13.88,0.49,83.45
15.743903,-0.1514,-0.1357,1.1025,-5.43,-7.02,-0.12,-13.95,0.33,83.50
15.774023,-0.1416,-0.1851,1.1304,-5.98,3.91,3.36,-14.08,0.29,83.53
15.774023,-0.2031,-0.1992,1.0874,2.87,22.64,7.14,-14.11,0.60,83.58
15.834096,-0.1587,-0.1953,1.1411,7.26,37.11,10.31,-13.99,1.23,83.61
15.834096,-0.1260,-0.2402,1.1279,9.09,45.47,18.13,-13.83,2.11,83.70
15.865306,-0.1646,-0.2061,1.1812,15.20,56.70,28.56,-13.57,3.21,83.95
15.865306,-0.3052,-0.1050,1.1206,15.56,66.83,22.77,-13.24,4.55,84.23
15.894111,-0.1841,-0.1851,1.1392,15.20,72.08,12.21,-12.91,5.98,84.25
15.894111,-0.1226,-0.2417,1.1138,15.75,78.25,20.14,-12.61,7.53,84.27
15.954093,-0.2217,-0.1802,1.1187,20.81,83.37,27.83,-12.22,9.21,84.45
15.954093,-0.2817,-0.1367,1.1860,23.56,91.98,28.50,-11.72,11.04,84.69
15.984112,-0.3911,-0.0947,1.1865,22.52,102.36,23.80,-11.21,13.06,84.88
15.984112,-0.4116,-0.0938,1.1895,18.43,109.38,10.31,-10.81,15.22,84.85
16.014085,-0.3232,-0.1743,1.1846,17.46,115.60,8.36,-10.50,17.48,84.64
16.014085,-0.2905,-0.2295,1.1782,17.33,120.00,16.85,-10.20,19.85,84.51
16.074114,-0.4160,-0.1860,1.1904,22.89,128.78,27.59,-9.75,22.38,84.62
16.074114,-0.7295,0.0137,1.3506,16.72,136.23,11.60,-9.29,25.08,84.69
16.104336,-0.7686,0.0815,1.5098,-13.37,141.60,-30.94,-9.53,27.80,84.03
16.104336,-0.3628,-0.1938,1.2490,-35.83,152.83,-38.27,-10.77,30.60,82.63
16.133833,-0.3359,-0.2637,1.0146,-25.88,159.91,-16.60,-12.04,33.60,81.37
16.133833,-0.5229,-0.1997,0.9590,-14.16,161.56,-4.15,-12.96,36.73,80.43
16.193873,-0.4878,-0.2095,0.9805,-9.89,166.32,0.61,-13.75,39.92,79.50
16.193873,-0.5000,-0.2417,0.8174,1.40,169.98,15.01,-14.35,43.26,78.73
16.223884,-0.6582,-0.1416,0.8105,12.51,167.66,22.34,-14.52,46.64,78.23
16.223884,-0.8442,-0.0288,0.8867,9.03,166.99,5.00,-14.79,49.97,77.54
16.254141,-0.7026,-0.1606,0.7778,0.85,167.24,-12.39,-15.84,53.18,76.09
16.254141,-0.6104,-0.2686,0.6938,7.08,166.81,-6.04,-17.22,56.35,74.28
16.314140,-0.6279,-0.2734,0.6733,11.29,165.28,3.85,-18.50,59.53,72.52
16.314140,-0.6362,-0.2671,0.5991,16.05,165.47,14.40,-19.67,62.74,70.86
16.344120,-0.6562,-0.2300,0.4790,24.66,166.26,29.85,-20.54,66.03,69.43
16.344120,-0.8418,-0.1030,0.4653,36.93,166.14,32.10,-21.00,69.38,68.23
16.373868,-0.9131,-0.0352,0.5850,30.58,163.70,17.52,-22.15,72.65,66.25
16.373868,-0.8066,-0.0742,0.4819,21.18,165.10,8.18,-25.10,75.77,62.66
16.434210,-0.7803,-0.1016,0.2778,27.95,165.59,9.95,-29.99,78.83,57.14
16.434210,-0.7710,-0.0918,0.2412,33.87,161.62,13.55,-37.71,81.73,48.64
16.464121,-0.8188,-0.0732,0.2056,33.94,155.70,9.34,-51.69,84.22,33.84
16.464121,-0.8188,-0.0508,0.1758,31.74,153.56,5.98,-77.80,85.79,6.94
16.494125,-0.8271,-0.0010,0.0840,29.30,150.21,-2.26,-112.04,85.64,-28.04
16.494125,-0.7637,-0.0532,-0.0244,29.11,145.26,-5.07,-135.05,83.98,-51.75
16.554177,-0.7241,-0.1162,-0.0894,34.42,143.19,-4.82,-147.18,81.69,-64.64
16.554177,-0.6665,-0.2002,-0.1577,42.60,140.26,7.81,-154.43,79.27,-72.80
16.584498,-0.7524,-0.1733,-0.1870,52.98,136.78,22.58,-159.85,76.88,-79.34
16.584498,-0.8901,-0.0327,-0.1387,55.30,140.26,25.94,-163.99,74.45,-84.78
16.614435,-0.9336,0.0347,-0.1934,48.46,138.12,12.51,-166.59,71.88,-88.59
16.614435,-0.8306,-0.0601,-0.2466,41.02,136.23,-0.73,-167.78,69.25,-90.82
16.675420,-0.7183,-0.1792,-0.3159,35.83,131.90,-1.46,-168.39,66.64,-92.31
16.675420,-0.6421,-0.2900,-0.4097,37.35,131.96,9.77,-169.05,64.09,-93.83
16.704402,-0.6787,-0.2681,-0.4194,42.36,135.19,20.69,-169.88,61.55,-95.71
16.704402,-0.7783,-0.1533,-0.3872,36.01,135.74,17.52,-170.67,58.97,-97.56
16.738714,-0.8857,0.0156,-0.4551,14.40,127.93,-13.06,-171.06,56.39,-98.64
16.738714,-0.7300,0.0146,-0.6079,-4.46,116.21,-58.17,-170.60,53.87,-98.18
16.794085,-0.3120,-0.1860,-0.8022,-10.38,107.48,-84.41,-169.48,51.38,-96.53
16.794085,0.0845,-0.3384,-0.9595,-13.55,84.41,-72.94,-168.35,49.15,-94.74
16.824226,0.2329,-0.3296,-1.0737,-14.89,51.15,-32.96,-167.85,47.59,-93.68
16.824226,0.0283,-0.1489,-1.1279,-8.85,15.75,0.12,-167.98,46.92,-93.52
16.856868,-0.2847,0.0054,-1.0220,4.09,-6.77,12.51,-168.21,46.90,-93.78
16.856868,-0.4971,0.0234,-0.8232,12.88,-20.94,13.92,-168.22,47.25,-94.07
16.914182,-0.6699,-0.0181,-0.6895,14.65,-28.75,9.77,-168.07,47.81,-94.26
16.914182,-0.7251,-0.0801,-0.6147,10.80,-34.12,2.62,-167.78,48.45,-94.22
16.944652,-0.6489,-0.1450,-0.6240,3.66,-39.43,-2.99,-167.42,49.16,-93.94
16.944652,-0.5186,-0.1807,-0.7095,-2.01,-43.21,-2.62,-167.12,49.95,-93.55
16.974111,-0.5210,-0.1182,-0.8242,-4.39,-50.66,-10.38,-166.79,50.83,-93.04
16.974111,-0.4214,-0.1577,-0.8008,-7.81,-68.97,-21.42,-166.14,51.90,-92.04
17.034152,-0.2446,-0.3110,-0.7681,-10.44,-86.24,-13.37,-165.32,53.31,-90.76
17.034152,-0.1396,-0.3813,-0.7305,-4.76,-98.08,17.52,-164.83,55.09,-89.96
17.064596,-0.3169,-0.2388,-0.6465,-3.48,-111.57,42.11,-164.94,57.29,-90.00
17.064596,-0.6426,-0.0107,-0.5273,-2.81,-121.03,33.26,-165.18,59.76,-90.24
17.094336,-0.7173,0.0146,-0.3965,-7.87,-134.77,8.30,-164.67,62.33,-89.54
17.094336,-0.6704,-0.0459,-0.3335,-15.38,-145.14,-5.25,-163.28,65.00,-87.71
17.154138,-0.5771,-0.1436,-0.3525,-14.10,-152.77,-2.56,-161.21,67.80,-85.10
17.154138,-0.5479,-0.1802,-0.2983,-4.58,-155.27,10.93,-158.73,70.69,-82.24
17.184161,-0.6353,-0.2065,-0.1494,3.54,-159.00,26.86,-155.95,73.72,-79.29
17.184161,-0.9189,-0.0703,0.0483,5.49,-152.47,31.86,-152.81,76.79,-76.16
17.244256,-1.0752,0.0361,0.1636,-7.02,-151.25,14.89,-147.61,79.62,-70.85
17.244256,-1.1206,0.0654,0.1665,-31.31,-161.13,-7.63,-136.97,82.09,-59.66
17.274189,-0.9985,-0.1030,0.0312,-34.00,-155.33,-26.73,-117.27,83.67,-39.06
17.274189,-0.6973,-0.3306,0.0239,-16.97,-145.81,-9.70,-92.97,83.96,-14.07
17.304382,-0.6919,-0.3569,0.1333,-2.01,-143.86,30.40,-69.43,83.68,9.79
17.304382,-0.8843,-0.1953,0.3184,-2.14,-144.17,52.98,-47.21,82.84,32.22
17.364104,-1.0864,0.0137,0.3608,-10.25,-142.09,42.72,-30.85,81.17,48.88
17.364104,-1.1440,0.1353,0.2969,-20.32,-142.64,10.99,-22.24,78.83,57.96
17.394231,-0.9546,0.0464,0.3472,-28.14,-153.69,-17.88,-19.13,75.99,61.66
17.394231,-0.7095,-0.1875,0.3643,-31.31,-156.80,-18.13,-18.02,72.88,63.48
17.424177,-0.5806,-0.3228,0.4673,1.83,-143.13,23.44,-15.87,69.97,66.07
17.424177,-0.8760,-0.0503,0.6255,20.45,-121.52,44.13,-12.34,67.60,69.58
17.484109,-1.1138,0.2036,0.7373,4.03,-124.15,26.12,-9.51,65.33,72.36
17.484109,-1.1504,0.2451,0.6777,-19.96,-134.70,-15.99,-8.81,62.76,73.34
17.514106,-0.8032,0.0024,0.5249,-31.01,-143.37,-50.29,-10.00,59.91,72.60
17.514106,-0.2739,-0.3853,0.5576,-11.54,-140.26,-14.77,-10.89,56.95,72.09
17.544272,-0.2617,-0.4341,0.6484,21.67,-128.36,51.70,-9.63,54.38,73.49
17.544272,-0.6733,-0.1001,0.9126,37.72,-118.84,91.86,-6.59,52.11,76.50
17.604398,-1.1509,0.2793,1.0820,22.40,-111.33,69.70,-3.72,49.93,79.39
17.604398,-1.2441,0.3550,0.9741,-6.71,-112.12,7.32,-2.68,47.74,80.61
17.634092,-0.7822,0.0430,0.7954,-13.85,-113.77,-27.95,-3.21,45.45,80.22
17.634092,-0.2173,-0.3506,0.7793,8.85,-107.79,9.70,-3.47,43.22,79.94
17.664134,-0.4351,-0.1997,0.6772,37.96,-101.01,73.79,-2.09,41.17,81.28
17.664134,-0.8818,0.1045,0.8042,48.28,-109.07,61.16,0.02,39.08,83.14
17.724290,-0.7031,0.1069,1.0884,23.74,-125.00,28.81,1.34,36.69,84.09
17.724290,-0.3311,-0.0625,1.2529,0.61,-127.32,35.77,1.83,34.11,84.59
17.754428,-0.5728,0.0796,1.1870,-4.70,-110.29,63.23,2.32,31.66,85.66
17.754428,-0.9697,0.3467,1.1904,-0.98,-91.80,34.97,2.82,29.58,86.72
17.784083,-0.9141,0.3569,1.1738,-21.79,-80.93,-14.71,2.64,27.88,86.76
17.784083,-0.4790,0.1021,1.0020,-35.16,-85.02,-45.65,1.64,26.27,85.87
17.844316,-0.0474,-0.1533,0.9292,-31.56,-86.61,-18.13,0.59,24.57,85.02
17.844316,-0.2173,-0.0464,0.8320,-15.32,-80.99,10.31,0.12,22.90,84.97
17.875013,-0.3691,0.0967,0.9604,-12.70,-88.13,-1.46,-0.09,21.21,85.05
17.875013,-0.2935,0.0527,1.0708,-26.86,-93.81,-16.11,-0.57,19.39,84.80
17.904491,-0.0972,-0.1001,1.1016,-32.71,-100.04,-12.27,-1.31,17.44,84.42
17.904491,-0.1792,-0.0400,1.0693,-27.77,-93.63,13.73,-1.91,15.49,84.48
17.964154,-0.4390,0.0923,1.0352,-16.78,-86.30,6.65,-2.26,13.70,84.76
17.964154,-0.3193,-0.0215,1.1484,-15.26,-79.83,-4.70,-2.57,12.04,84.76
17.994370,-0.2808,-0.1123,1.1216,-14.28,-67.50,2.32,-2.88,10.56,84.77
17.994370,-0.3306,-0.0786,1.1128,-10.68,-55.66,8.85,-3.09,9.34,84.93
18.024477,-0.3389,-0.0332,1.2007,-14.53,-49.99,4.09,-3.30,8.30,85.09
18.024477,-0.3042,0.0283,1.1895,-25.02,-43.95,-1.59,-3.70,7.37,85.16
18.084183,-0.2603,0.0806,1.0815,-26.00,-38.88,-6.71,-4.23,6.53,85.10
18.084183,-0.1729,0.0522,1.0137,-16.17,-31.62,-6.10,-4.66,5.82,84.99
18.114129,-0.1714,0.0444,1.0166,-7.63,-25.21,-3.66,-4.89,5.26,84.94
18.114129,-0.1006,-0.0078,1.1011,-8.06,-22.71,-1.46,-5.03,4.78,84.89
18.144145,-0.1621,-0.0049,1.0474,-7.69,-16.05,5.43,-5.20,4.39,84.97
18.144145,-0.1992,-0.0044,1.0625,-2.20,-8.67,4.64,-5.28,4.15,85.09
18.204422,-0.2065,-0.0435,1.1123,3.97,3.30,11.90,-5.25,4.11,85.25
18.204422,-0.2827,-0.0137,1.1816,7.81,16.17,17.58,-5.10,4.34,85.53
18.234159,-0.4932,0.1265,1.1724,8.91,30.46,11.05,-4.91,4.84,85.84
18.234159,-0.4067,0.0527,1.2241,5.92,39.49,-10.56,-4.75,5.54,85.76
18.264128,-0.1914,-0.1230,1.2295,6.29,54.26,-2.93,-4.67,6.47,85.52
18.264128,-0.2129,-0.0913,1.2217,19.35,74.34,23.68,-4.39,7.78,85.67
18.324788,-0.4937,0.1157,1.2559,32.35,94.60,29.54,-3.78,9.51,86.19
18.324788,-0.5718,0.1797,1.3188,33.08,112.24,8.85,-3.05,11.61,86.52
18.354125,-0.4141,0.0835,1.2446,30.58,124.88,-5.74,-2.43,14.01,86.45
18.354125,-0.3096,-0.0112,1.1509,32.59,132.69,-3.17,-1.84,16.59,86.30
18.384148,-0.3735,0.0264,1.2031,29.79,127.81,0.24,-1.19,19.22,86.29
18.384148,-0.3979,0.0220,1.2085,16.42,125.18,3.11,-0.73,21.73,86.34
18.444174,-0.5767,0.1035,1.1069,18.68,132.14,-2.01,-0.36,24.31,86.42
18.444174,-0.7319,0.2114,1.1890,17.76,136.54,-24.84,-0.05,27.02,86.21
18.474947,-0.6099,0.1509,1.2236,2.14,134.52,-45.23,-0.21,29.76,85.44
18.474947,-0.4087,-0.0146,1.0991,-3.48,135.80,-41.20,-0.76,32.45,84.44
18.504445,-0.4399,-0.0415,0.9971,8.91,145.57,-26.37,-1.11,35.28,83.69
18.504445,-0.4756,-0.0195,0.9961,15.08,152.34,-17.27,-1.15,38.28,83.18
18.564198,-0.5659,0.0171,0.9873,17.15,153.50,-13.67,-1.03,41.36,82.83
18.564198,-0.6963,0.0879,1.0024,11.35,148.07,-21.73,-1.01,44.38,82.41
18.594241,-0.7368,0.0757,0.9595,4.52,145.75,-32.65,-1.40,47.30,81.66
18.594241,-0.6392,-0.0088,0.8975,7.75,153.93,-37.05,-2.10,50.28,80.55
18.654148,-0.5894,-0.0630,0.8286,18.25,165.53,-21.73,-2.62,53.48,79.54
18.654148,-0.7080,-0.0112,0.7988,23.56,167.42,-12.94,-2.72,56.82,78.86
18.684153,-0.9214,0.0894,0.7856,17.76,160.89,-23.99,-2.94,60.11,78.10
18.684153,-0.8687,0.0728,0.7988,2.20,155.76,-48.52,-4.31,63.22,76.31
18.714111,-0.6616,-0.0742,0.5923,3.42,163.39,-47.12,-6.78,66.32,73.53
18.714111,-0.5889,-0.1387,0.4570,19.04,165.41,-25.51,-9.16,69.53,70.69
18.775081,-0.7466,-0.0488,0.4580,25.45,162.11,-13.24,-11.00,72.72,68.24
18.775081,-0.7915,-0.0205,0.4380,27.22,164.06,-11.60,-13.30,75.87,65.28
18.805625,-0.8521,0.0317,0.4014,28.81,162.41,-14.22,-17.01,78.99,60.88
18.805625,-0.9365,0.0859,0.3154,24.23,162.84,-30.21,-24.59,81.93,52.64
18.834113,-0.7578,-0.0459,0.2432,19.41,158.39,-39.86,-41.39,84.30,35.26
18.834113,-0.6904,-0.1689,0.1313,21.36,150.76,-28.56,-69.76,85.59,6.33
18.894234,-0.7681,-0.1616,0.1606,23.38,145.75,-20.87,-101.90,85.41,-26.40
18.894234,-0.7627,-0.2061,0.0747,27.89,143.92,-10.56,-125.58,83.98,-50.71
18.929644,-0.9360,-0.0923,-0.0298,34.55,135.80,-10.25,-139.59,81.99,-65.49
18.929644,-1.0195,0.0000,-0.0029,35.83,132.08,-28.26,-146.65,79.67,-73.39
18.954317,-0.8262,-0.0884,-0.0176,30.21,129.39,-47.36,-149.49,77.05,-76.99
18.954317,-0.6172,-0.2290,-0.1387,23.68,123.90,-39.31,-151.03,74.42,-79.13
19.014235,-0.5806,-0.2852,-0.1973,27.65,120.18,-14.83,-152.82,72.06,-81.55
19.014235,-0.7266,-0.2026,-0.2295,31.86,120.91,0.79,-155.06,69.88,-84.57
19.044284,-0.8994,-0.0474,-0.2583,30.82,122.19,-6.10,-156.98,67.68,-87.34
19.044284,-0.8965,0.0454,-0.3384,22.09,116.39,-27.71,-157.92,65.35,-88.96
19.075472,-0.6660,-0.0112,-0.4580,11.35,106.20,-42.42,-158.00,63.03,-89.41
19.075472,-0.4624,-0.1514,-0.6323,14.71,97.84,-30.82,-157.96,60.87,-89.63
19.134518,-0.4224,-0.2969,-0.6924,33.69,100.89,-6.65,-158.24,58.93,-90.52
19.134518,-0.4932,-0.3223,-0.6201,46.81,106.02,6.96,-158.70,57.02,-92.09
19.164306,-0.5908,-0.2427,-0.5938,40.65,99.18,5.49,-159.16,55.17,-93.74
19.164306,-0.6323,-0.2324,-0.6377,25.21,85.39,-8.12,-159.44,53.47,-94.89
19.194229,-0.5415,-0.3247,-0.6597,12.51,64.58,-28.63,-159.33,51.93,-95.25
19.194229,-0.3198,-0.4429,-0.6680,-6.04,44.19,-29.48,-159.08,50.72,-94.98
19.254156,-0.2891,-0.4521,-0.8003,-10.31,30.15,-18.01,-159.08,49.87,-94.74
19.254156,-0.3228,-0.3882,-0.7632,-7.57,20.08,-2.26,-159.26,49.34,-94.75
19.284168,-0.4912,-0.2305,-0.7749,-6.23,8.67,6.65,-159.60,49.10,-95.03
19.284168,-0.6328,-0.0947,-0.7441,-6.84,-4.58,-1.83,-159.81,49.10,-95.15
19.314220,-0.5854,-0.1240,-0.7378,-10.93,-20.20,-16.11,-159.68,49.26,-94.74
19.314220,-0.4448,-0.2563,-0.7300,-12.08,-33.20,-15.44,-159.32,49.65,-93.95
19.375789,-0.4146,-0.3359,-0.7427,-6.71,-41.32,-4.15,-158.98,50.28,-93.25
19.375789,-0.4604,-0.3027,-0.7021,-3.78,-45.29,5.07,-158.71,51.10,-92.78
19.404490,-0.5327,-0.2432,-0.7036,-4.09,-54.50,2.20,-158.41,52.05,-92.31
19.404490,-0.4966,-0.2568,-0.6577,-9.95,-68.85,-1.10,-157.92,53.18,-91.52
19.434621,-0.4507,-0.2974,-0.6382,-13.00,-79.53,3.60,-157.38,54.57,-90.53
19.434621,-0.4131,-0.3203,-0.6548,-10.44,-85.94,15.01,-156.90,56.15,-89.65
19.494285,-0.4033,-0.3325,-0.5815,-4.21,-93.14,36.01,-156.62,58.00,-89.15
19.494285,-0.6553,-0.1855,-0.4976,-0.92,-97.47,44.74,-156.64,60.10,-89.13
19.524190,-0.8745,-0.0332,-0.3486,-8.54,-104.68,26.18,-156.38,62.23,-88.76
19.524190,-0.8540,-0.0928,-0.3184,-21.91,-113.89,1.28,-155.31,64.31,-87.19
19.554190,-0.6973,-0.2104,-0.3003,-30.58,-120.97,-2.81,-153.48,66.39,-84.57
19.554190,-0.6616,-0.2461,-0.3740,-28.75,-123.60,3.48,-151.36,68.53,-81.61
19.614176,-0.6445,-0.2817,-0.3516,-16.30,-124.15,16.36,-148.91,70.76,-78.48
19.614176,-0.7881,-0.1953,-0.1782,-5.00,-121.95,24.29,-146.16,73.02,-75.39
19.644283,-0.9224,-0.0908,-0.0337,-18.55,-130.37,17.70,-142.47,75.29,-71.33
19.644283,-0.8271,-0.1787,-0.0752,-26.67,-135.07,12.57,-136.81,77.48,-64.97
19.674299,-0.8540,-0.1133,-0.1143,-23.50,-132.45,14.40,-129.02,79.46,-56.50
19.674299,-0.8130,-0.1470,-0.0962,-9.22,-132.81,14.40,-117.94,81.11,-44.90
19.734195,-0.7798,-0.1323,0.0894,2.26,-129.27,26.00,-103.28,82.36,-30.01
19.734195,-0.8486,-0.0273,0.1670,-1.95,-132.08,32.47,-85.02,83.10,-11.60
19.764151,-0.9204,0.0459,0.1274,-10.44,-139.10,21.36,-64.89,82.86,8.85
19.764151,-0.9126,-0.0049,0.1313,-2.99,-137.51,9.64,-48.69,81.51,25.37
19.794235,-0.8184,-0.1045,0.2837,9.70,-136.47,9.03,-37.91,79.57,36.25
19.794235,-0.7954,-0.1011,0.4551,2.99,-137.63,19.90,-29.84,77.42,44.34
19.854124,-0.7861,-0.1152,0.4180,1.16,-136.41,32.17,-23.40,75.15,50.96
19.854124,-0.8682,-0.0542,0.3716,5.55,-132.51,31.80,-18.30,72.85,56.22
19.884213,-0.8926,-0.0054,0.4097,2.99,-134.64,17.09,-14.82,70.41,59.79
19.884213,-0.7368,-0.1064,0.4653,-0.18,-139.95,9.40,-12.73,67.76,62.00
19.914249,-0.5068,-0.2920,0.5483,2.69,-143.92,26.25,-10.94,65.03,63.96
19.914249,-0.4897,-0.2847,0.6406,15.14,-131.10,68.91,-8.11,62.42,66.95
19.974273,-0.7734,-0.0161,0.6157,29.17,-116.21,86.79,-4.39,60.11,70.68
19.974273,-1.0552,0.2427,0.5767,32.41,-109.07,60.55,-1.19,57.93,73.70
20.004487,-0.8926,0.2505,0.7012,11.84,-133.85,10.38,0.15,55.52,74.75
20.004487,-0.5288,0.0000,0.8311,-11.54,-164.98,-4.09,-0.01,52.49,74.59
20.064039,-0.2930,-0.2173,0.9253,-8.91,-166.26,20.32,-0.20,49.13,74.66
20.064039,-0.3721,-0.1099,1.1392,2.50,-156.01,60.49,0.55,45.88,75.75
20.094253,-0.7783,0.2197,1.2427,-0.06,-143.68,70.56,1.81,42.84,77.49
20.094253,-1.0762,0.4717,1.2046,-17.64,-144.29,28.99,2.38,39.92,78.62
20.124246,-0.9365,0.4453,1.1431,-41.14,-157.47,-27.59,1.61,36.91,78.34
20.124246,-0.4951,0.1968,1.1187,-55.79,-164.73,-52.19,-0.10,33.69,77.10
20.184214,-0.1616,-0.0845,1.0420,-42.36,-152.04,-30.03,-1.66,30.51,76.04
20.184214,-0.1367,-0.1787,1.0752,-16.24,-135.62,12.88,-2.30,27.65,75.90
20.214230,-0.3638,-0.0669,1.2676,-5.92,-123.90,41.14,-2.16,25.08,76.61
20.214230,-0.6382,0.0400,1.3096,-14.83,-117.55,38.94,-1.99,22.68,77.57
20.244279,-0.6406,0.0166,1.2856,-19.17,-109.80,23.80,-2.10,20.40,78.24
20.244279,-0.5962,0.0000,1.1621,-18.49,-94.24,14.22,-2.35,18.37,78.67
20.305500,-0.4858,-0.0474,1.0894,-11.60,-84.84,2.08,-2.59,16.60,78.86
20.305500,-0.3535,-0.1040,1.1196,-14.16,-87.59,-3.78,-2.82,14.89,78.87
20.334220,-0.2935,-0.0488,1.2002,-27.59,-98.88,-3.17,-3.24,13.02,78.84
20.334220,-0.2993,-0.0112,1.2290,-39.18,-103.52,-6.10,-3.93,10.96,78.82
20.364209,-0.1919,-0.0244,1.2373,-43.82,-88.99,1.65,-4.77,9.02,78.84
20.364209,-0.2383,0.0303,1.0430,-32.29,-66.47,18.55,-5.52,7.50,79.16
20.424561,-0.4297,0.1309,0.9536,-12.27,-50.48,15.20,-5.89,6.39,79.63
20.424561,-0.4355,0.0996,1.0269,-4.09,-45.84,-6.65,-6.00,5.45,79.78
20.454607,-0.2222,-0.0435,1.0737,-8.30,-45.53,-15.87,-6.14,4.52,79.59
20.454607,-0.0254,-0.1587,1.0640,-7.32,-37.11,-3.66,-6.31,3.66,79.44
20.484170,-0.0874,-0.1416,0.9819,1.83,-25.21,13.00,-6.36,3.07,79.61
20.484170,-0.1597,-0.0903,1.0493,10.62,-16.66,19.47,-6.20,2.68,79.99
20.544386,-0.2915,0.0000,1.1313,6.84,-13.79,13.92,-5.99,2.42,80.36
20.544386,-0.2827,-0.0112,1.1226,-2.38,-12.27,-0.73,-5.95,2.16,80.50
20.574160,-0.1870,-0.0718,1.1187,-4.27,-3.17,-7.51,-6.03,2.00,80.41
20.574160,-0.1265,-0.1074,1.0576,-4.39,5.00,-6.47,-6.12,2.02,80.26
20.604483,-0.0625,-0.1626,1.0366,-0.85,10.56,2.50,-6.17,2.18,80.19
20.604483,-0.0811,-0.1533,1.1099,0.61,15.32,17.27,-6.16,2.46,80.37
20.664013,-0.2520,-0.0361,1.1211,-1.16,25.39,25.45,-6.15,2.89,80.80
20.664013,-0.3228,0.0063,1.0967,2.69,39.31,16.85,-6.12,3.59,81.17
20.694161,-0.2349,-0.0054,1.1685,5.00,51.15,14.83,-6.02,4.53,81.39
20.694161,-0.2031,0.0015,1.1987,8.06,63.42,26.18,-5.87,5.71,81.69
20.724213,-0.3232,0.1021,1.2236,13.98,79.96,34.85,-5.59,7.19,82.23
20.724213,-0.4155,0.1260,1.1475,22.83,98.21,32.90,-5.15,9.04,82.80
20.784231,-0.4771,0.0952,1.1260,33.33,112.79,21.73,-4.49,11.20,83.23
20.784231,-0.4609,0.0127,1.2041,32.29,120.24,8.12,-3.78,13.56,83.41
20.814196,-0.4106,-0.0581,1.2769,16.78,117.68,-1.16,-3.28,15.95,83.37
20.814196,-0.3726,-0.1260,1.2339,5.07,117.49,2.32,-3.11,18.30,83.29
20.852508,-0.4590,-0.0669,1.2344,3.23,124.27,8.85,-3.01,20.71,83.35
20.852508,-0.7295,0.0977,1.2749,3.42,135.31,-1.77,-2.92,23.32,83.40
20.904507,-0.6885,0.0898,1.3179,-3.66,149.35,-27.22,-3.10,26.16,82.96
20.904507,-0.6050,0.0249,1.2285,-9.34,158.26,-41.56,-3.64,29.25,82.05
20.934109,-0.5029,-0.0693,1.2041,-10.86,158.39,-46.39,-4.45,32.38,80.84
20.934109,-0.4424,-0.1118,1.1997,-11.17,166.87,-37.72,-5.36,35.57,79.59
20.964042,-0.4009,-0.1577,1.0361,-1.95,176.70,-15.14,-6.09,38.97,78.60
20.964042,-0.5576,-0.1006,1.0166,13.18,181.46,1.89,-6.28,42.54,78.09
21.024199,-0.8574,0.1113,1.1187,8.24,180.79,-6.04,-6.31,46.16,77.68
21.024199,-0.9985,0.1934,1.0801,-5.68,179.75,-40.34,-7.15,49.71,76.51
21.054217,-0.8794,0.1265,0.9609,-13.06,183.96,-69.21,-9.26,53.18,74.06
21.054217,-0.5664,-0.1187,0.8291,-10.68,187.50,-69.34,-12.32,56.62,70.59
21.084226,-0.3892,-0.3252,0.6953,4.33,197.51,-34.24,-15.29,60.16,67.15
21.084226,-0.6025,-0.2314,0.6250,18.80,200.93,-7.93,-17.51,63.95,64.30
21.144336,-0.7773,-0.1152,0.6338,12.57,190.19,-8.12,-19.94,67.65,61.25
21.144336,-0.8789,-0.0483,0.6055,4.70,184.08,-24.78,-23.83,71.02,56.90
21.174437,-0.6699,-0.1631,0.4971,3.54,189.39,-27.34,-30.26,74.14,50.07
21.174437,-0.5742,-0.2432,0.3452,16.66,194.21,-5.55,-38.86,77.18,40.94
21.204548,-0.7607,-0.1333,0.3223,25.63,192.44,12.33,-50.34,80.11,28.75
21.204548,-1.0098,0.0791,0.2930,27.83,191.10,-2.44,-68.68,82.29,9.60
21.264421,-0.9062,0.0767,0.2539,25.76,187.19,-26.00,-94.16,82.64,-16.69
21.264421,-0.7910,0.0469,0.1240,22.89,184.69,-40.04,-115.93,81.08,-39.21
21.294313,-0.6738,-0.0229,-0.0151,21.91,174.38,-45.23,-129.05,78.48,-53.02
21.294313,-0.5640,-0.1455,-0.1035,20.81,160.03,-43.46,-136.44,75.59,-61.07
21.324243,-0.5371,-0.2461,-0.1572,18.86,146.61,-35.46,-141.06,72.81,-66.31
21.324243,-0.5112,-0.3369,-0.1445,17.27,142.15,-20.39,-144.56,70.22,-70.41
21.384242,-0.5493,-0.3350,-0.2451,17.15,140.75,1.04,-147.95,67.81,-74.43
21.384242,-0.6943,-0.1909,-0.2729,16.24,140.69,9.77,-151.22,65.52,-78.38
21.414388,-0.7817,-0.1172,-0.3643,11.96,130.13,-2.01,-153.74,63.17,-81.53
21.414388,-0.6416,-0.2129,-0.3916,6.59,120.85,-9.03,-155.38,60.90,-83.59
21.474268,-0.5498,-0.3057,-0.4619,10.80,121.34,-0.37,-156.77,58.66,-85.42
21.474268,-0.5698,-0.3223,-0.4814,15.26,119.51,16.85,-158.26,56.54,-87.52
21.504534,-0.7275,-0.2368,-0.4912,16.60,115.84,21.67,-159.76,54.52,-89.76
21.504534,-0.8701,-0.1440,-0.4546,14.22,110.47,9.83,-160.93,52.54,-91.63
21.534258,-0.8120,-0.1772,-0.4844,5.68,106.51,-9.52,-161.63,50.50,-92.79
21.534258,-0.5781,-0.3091,-0.6040,6.04,109.62,-10.44,-162.10,48.40,-93.55
21.594539,-0.4761,-0.3208,-0.6953,10.19,107.30,-0.79,-162.58,46.31,-94.46
21.594539,-0.5127,-0.2280,-0.7827,10.44,98.14,-5.37,-163.00,44.35,-95.37
21.625033,-0.4185,-0.1787,-0.8389,1.59,73.85,-30.33,-163.05,42.60,-95.66
21.625033,-0.1812,-0.2915,-0.9067,-3.78,50.35,-42.18,-162.80,41.21,-95.21
21.654270,0.0098,-0.4312,-0.9019,-0.61,39.67,-23.62,-162.54,40.17,-94.73
21.654270,-0.0767,-0.3521,-0.8794,4.70,33.57,2.69,-162.54,39.42,-94.83
21.715581,-0.3071,-0.1714,-0.8799,5.13,23.25,12.02,-162.73,38.95,-95.31
21.715581,-0.4590,-0.0425,-0.8794,3.54,8.67,1.28,-162.83,38.69,-95.62
21.744671,-0.4189,-0.0679,-0.9072,2.08,-7.69,-11.17,-162.69,38.66,-95.49
21.744671,-0.2871,-0.1772,-0.9067,4.82,-22.46,-13.73,-162.34,38.88,-95.04
21.775043,-0.2207,-0.2900,-0.8584,5.98,-35.16,-3.48,-161.94,39.37,-94.59
21.775043,-0.2612,-0.3706,-0.8340,7.20,-46.45,6.35,-161.63,40.16,-94.30
21.835106,-0.2769,-0.3735,-0.7583,6.65,-54.08,12.70,-161.35,41.19,-94.10
21.835106,-0.3140,-0.2974,-0.7622,3.36,-65.25,11.54,-161.09,42.39,-93.89
21.867871,-0.2407,-0.3340,-0.7490,-3.30,-84.84,13.31,-160.81,43.88,-93.46
21.867871,-0.2349,-0.3481,-0.6807,-2.01,-92.71,32.41,-160.68,45.74,-93.17
21.894723,-0.4302,-0.2129,-0.6768,5.49,-93.08,43.21,-160.74,47.75,-93.31
21.894723,-0.6255,-0.0903,-0.5972,5.62,-104.61,30.76,-160.63,49.84,-93.36
21.955008,-0.6187,-0.1372,-0.5171,-5.19,-123.96,18.80,-160.16,52.16,-92.76
21.955008,-0.6040,-0.1670,-0.4409,-12.27,-137.76,13.12,-159.42,54.72,-91.63
21.984258,-0.5698,-0.2261,-0.4219,-20.87,-143.80,15.75,-158.60,57.44,-90.20
21.984258,-0.5820,-0.2837,-0.4282,-19.04,-144.90,21.67,-157.73,60.25,-88.69
22.015158,-0.6182,-0.3174,-0.3369,-13.61,-142.03,32.90,-156.82,63.08,-87.31
22.015158,-0.7686,-0.2056,-0.2266,-14.83,-139.77,43.76,-156.17,65.97,-86.27
22.075061,-0.9336,-0.0625,-0.2236,-23.86,-143.92,29.79,-155.31,68.84,-84.92
22.075061,-0.8560,-0.1299,-0.2358,-23.74,-148.68,14.77,-153.18,71.64,-82.12
22.104508,-0.7681,-0.1836,-0.1865,-10.07,-138.55,19.04,-149.93,74.29,-78.35
22.104508,-0.7979,-0.1265,-0.0586,-7.51,-140.38,26.12,-145.83,76.84,-73.96
22.135019,-0.8809,-0.0898,-0.0020,-10.38,-145.14,27.53,-140.06,79.43,-67.87
22.135019,-0.9385,-0.0269,0.0444,-14.59,-152.10,15.50,-129.96,81.81,-57.37
22.195104,-0.8296,-0.1074,0.0688,-16.60,-157.59,2.93,-111.84,83.48,-38.72
22.195104,-0.7109,-0.2026,0.1416,-7.93,-155.58,16.78,-86.73,84.10,-13.18
22.224185,-0.7476,-0.1777,0.2979,-2.01,-156.86,39.61,-60.47,83.69,13.33
22.224185,-0.9360,-0.0146,0.3745,-7.32,-155.52,45.29,-39.07,82.27,35.00
22.255013,-1.0176,0.0532,0.3037,-11.60,-158.39,24.35,-26.13,79.94,48.32
22.255013,-0.9233,0.0391,0.3022,-7.02,-157.04,8.97,-19.65,77.10,55.15
22.315183,-0.8760,0.0791,0.4272,-8.73,-163.57,-4.27,-16.30,74.08,58.73
22.315183,-0.7305,-0.0366,0.5039,-29.48,-180.05,-5.25,-14.57,70.68,60.98
22.345156,-0.6348,-0.1763,0.4277,-19.53,-176.94,9.77,-13.11,67.18,63.13
22.345156,-0.6816,-0.0913,0.4746,-2.20,-165.34,28.69,-11.09,63.91,65.58
22.375050,-0.7861,0.0244,0.5518,9.16,-164.06,29.97,-8.95,60.76,67.90
22.375050,-0.7876,0.0654,0.7930,-0.61,-176.15,17.76,-7.41,57.46,69.55
22.435036,-0.6226,-0.1030,0.9927,-13.00,-188.60,22.95,-6.56,53.81,70.80
22.435036,-0.6377,-0.0947,1.0483,-5.07,-172.49,40.89,-5.58,50.25,72.31
22.464360,-0.7954,0.0967,1.0610,3.66,-153.44,44.80,-4.36,47.08,73.95
22.464360,-0.9243,0.2256,1.0659,5.13,-148.25,23.44,-3.42,44.12,75.12
22.495213,-0.8613,0.1885,1.1855,-5.80,-153.20,-4.09,-3.18,41.11,75.47
22.495213,-0.7280,0.0532,1.1953,-15.20,-151.18,-17.40,-3.53,38.04,75.27
22.555068,-0.6143,-0.0479,1.1396,-14.04,-138.49,-18.55,-4.02,35.12,74.95
22.555068,-0.5376,-0.1421,1.0640,-5.13,-123.84,-7.75,-4.31,32.50,74.77
22.584295,-0.5664,-0.1392,1.1191,3.11,-112.73,2.87,-4.25,30.15,74.87
22.584295,-0.6484,-0.0396,1.1357,-1.10,-101.93,0.24,-4.13,28.02,75.06
22.615024,-0.6772,0.0151,0.9570,-4.27,-98.63,-26.37,-4.26,26.03,74.90
22.615024,-0.3643,-0.1304,1.0024,-5.80,-107.73,-48.83,-4.67,23.93,74.11
22.675051,0.0649,-0.3823,1.0957,-5.98,-107.12,-20.14,-5.08,21.70,73.43
22.675051,0.0454,-0.3579,1.2124,4.58,-92.77,41.87,-4.93,19.71,73.82
22.705461,-0.4150,-0.0205,1.2231,6.90,-70.31,78.98,-4.36,18.16,75.31
22.705461,-0.9121,0.3179,1.1323,6.47,-53.28,52.92,-3.77,17.02,76.82
22.735509,-0.9019,0.2964,1.0654,0.49,-45.35,0.49,-3.55,16.07,77.37
22.735509,-0.5679,0.0474,1.1450,-1.71,-41.75,-28.08,-3.64,15.19,77.03
22.795556,-0.2632,-0.1343,1.1240,-12.94,-35.64,-15.20,-3.91,14.39,76.57
22.795556,-0.2021,-0.1572,0.9736,-5.86,-28.32,8.42,-4.13,13.76,76.55
22.824265,-0.3569,-0.0479,0.9819,1.89,-27.04,17.82,-4.07,13.23,76.89
22.824265,-0.4111,-0.0225,1.0967,0.06,-25.09,16.11,-3.95,12.72,77.26
22.885091,-0.5073,0.0498,1.1094,-7.02,-22.64,5.92,-3.97,12.26,77.52
22.885091,-0.4380,0.0522,1.0762,-11.72,-16.78,-6.96,-4.16,11.86,77.51
22.917039,-0.3032,0.0068,1.0015,-9.16,-7.51,-11.47,-4.42,11.61,77.32
22.917039,-0.1924,-0.0474,0.9678,-3.54,-0.98,-3.23,-4.56,11.53,77.16
22.945207,-0.2114,-0.0688,0.9834,1.89,4.46,4.82,-4.57,11.57,77.17
22.945207,-0.2974,-0.0625,1.0366,1.34,8.61,11.90,-4.49,11.72,77.34
23.005342,-0.3721,-0.0127,1.0776,-5.62,10.86,13.12,-4.48,11.93,77.60
23.005342,-0.4609,0.0303,1.0386,-7.39,15.44,8.24,-4.58,12.21,77.82
23.036914,-0.4009,-0.0034,1.0605,-6.16,24.11,5.74,-4.70,12.61,77.90
23.036914,-0.3149,-0.1177,1.1011,1.16,42.30,22.77,-4.70,13.28,78.13
23.065274,-0.3867,-0.0854,1.1406,12.08,68.73,49.93,-4.40,14.45,78.84
23.065274,-0.6440,0.0859,1.1567,20.32,91.61,57.74,-3.78,16.13,79.93
23.125098,-0.8467,0.2197,1.1724,20.02,104.49,34.48,-3.10,18.15,80.85
23.125098,-0.7925,0.1665,1.1455,16.78,111.69,1.46,-2.64,20.34,81.14
23.154223,-0.5630,-0.0420,1.1172,17.88,119.32,-11.23,-2.37,22.65,80.93
23.154223,-0.4951,-0.1440,1.1089,20.08,124.33,-5.19,-2.07,25.10,80.71
23.185061,-0.5840,-0.0815,1.1694,12.39,123.78,-2.87,-1.76,27.60,80.62
23.185061,-0.7295,0.0337,1.1587,1.59,122.13,-14.53,-1.72,30.05,80.43
23.245930,-0.8213,0.1528,1.1675,-7.45,125.12,-39.79,-2.12,32.53,79.76
23.245930,-0.6079,0.0342,1.1191,-12.82,133.79,-51.27,-3.01,35.10,78.53
23.274320,-0.4404,-0.1016,1.0322,-9.89,141.36,-30.33,-3.92,37.84,77.38
23.274320,-0.5474,-0.0312,0.9468,-2.50,146.61,-2.08,-4.37,40.72,76.84
23.305312,-0.8379,0.1377,0.9268,4.94,149.17,1.95,-4.42,43.68,76.71
23.305312,-1.0415,0.2407,1.0332,5.86,152.04,-18.80,-4.58,46.68,76.27
23.365150,-0.9731,0.1123,1.0396,1.04,156.92,-41.99,-5.45,49.72,75.03
23.365150,-0.7798,-0.0557,0.9775,6.53,170.35,-38.45,-6.71,52.93,73.30
23.395940,-0.7827,-0.0566,0.9204,7.51,176.33,-34.12,-7.99,56.33,71.50
23.395940,-0.7612,-0.0884,0.7993,3.78,174.56,-31.01,-9.57,59.73,69.49
23.425089,-0.7363,-0.0815,0.7144,2.69,172.97,-31.13,-11.57,63.06,67.13
23.425089,-0.6279,-0.1455,0.5996,3.30,169.31,-22.22,-14.00,66.32,64.35
23.485091,-0.6309,-0.1655,0.5479,6.77,167.05,-3.66,-16.36,69.52,61.68
23.485091,-0.8301,-0.0674,0.5420,13.31,169.31,4.33,-18.59,72.77,59.07
23.514371,-0.9702,0.0098,0.5366,8.18,167.11,-11.66,-22.27,75.94,55.00
23.514371,-0.8774,-0.0786,0.4766,5.74,168.64,-20.51,-29.27,78.85,47.68
23.546174,-0.8589,-0.0972,0.4062,3.72,167.30,-19.71,-40.86,81.45,35.78
23.546174,-0.9033,-0.0815,0.3257,3.36,166.69,-24.23,-59.84,83.34,16.53
23.605322,-0.7891,-0.1626,0.2734,3.36,169.56,-22.52,-86.78,83.94,-10.67
23.605322,-0.7778,-0.2119,0.2188,7.02,175.42,-10.50,-113.26,83.08,-37.47
23.634329,-0.9238,-0.1167,0.2036,5.55,178.65,-8.97,-132.47,81.07,-57.05
23.634329,-1.0054,-0.0425,0.0903,-0.43,178.77,-26.37,-143.72,78.22,-68.55
23.665170,-0.9067,-0.0454,0.0195,-5.62,172.12,-45.65,-149.29,74.92,-74.24
23.665170,-0.7231,-0.0898,-0.1006,-13.24,165.41,-57.37,-152.06,71.48,-76.94
23.725078,-0.4771,-0.2217,-0.2500,-7.63,159.48,-44.86,-153.89,68.13,-78.66
23.725078,-0.4341,-0.1899,-0.3208,-2.99,156.01,-25.57,-155.77,65.01,-80.62
23.754341,-0.4653,-0.1201,-0.4272,2.69,144.17,-11.17,-157.62,62.14,-82.70
23.754341,-0.5176,-0.0225,-0.4673,8.91,132.63,-0.49,-159.21,59.57,-84.68
23.785113,-0.5151,0.0425,-0.5273,20.32,121.46,10.80,-160.50,57.27,-86.57
23.785113,-0.5537,0.0044,-0.5312,36.07,117.86,31.62,-161.71,55.18,-88.74
23.846502,-0.7119,-0.0610,-0.4653,49.93,124.15,41.75,-162.89,53.16,-91.31
23.846502,-0.8145,-0.0781,-0.4551,49.87,125.12,34.85,-163.80,51.03,-93.78
23.874289,-0.8354,-0.1582,-0.4790,40.41,115.66,13.73,-164.27,48.89,-95.61
23.874289,-0.6660,-0.3149,-0.4346,25.88,109.86,-15.50,-164.26,46.74,-96.52
23.905500,-0.2656,-0.5063,-0.6255,11.05,106.81,-20.39,-164.16,44.54,-96.86
23.905500,0.0508,-0.6572,-0.8516,14.47,106.57,19.90,-164.49,42.51,-97.68
23.965019,-0.2129,-0.4102,-0.8706,23.44,105.16,55.85,-165.31,40.72,-99.57
23.965019,-0.5908,-0.0508,-0.8608,16.85,92.59,39.43,-166.14,39.08,-101.55
23.994201,-0.6333,0.0908,-0.9404,9.77,74.58,-1.10,-166.50,37.57,-102.56
23.994201,-0.4512,-0.0522,-0.9717,13.12,54.99,-37.96,-166.21,36.23,-102.45
24.025052,-0.0840,-0.3672,-0.8735,15.75,43.88,-39.25,-165.53,35.07,-101.80
24.025052,0.1177,-0.5317,-0.8652,14.34,37.05,-9.34,-165.06,34.16,-101.50
24.085098,-0.1006,-0.3921,-0.8838,12.51,21.79,14.16,-164.97,33.63,-101.84
24.085098,-0.3804,-0.2285,-0.8101,2.32,2.14,5.25,-165.00,33.48,-102.20
24.114370,-0.3159,-0.3042,-0.7959,-7.81,-11.17,-4.15,-165.03,33.59,-102.12
24.114370,-0.3164,-0.3013,-0.8623,-6.59,-12.94,7.26,-165.16,33.83,-102.09
24.146600,-0.4263,-0.1733,-0.8608,-5.86,-16.85,11.96,-165.36,34.18,-102.24
24.146600,-0.4766,-0.0938,-0.9126,-6.90,-24.41,1.71,-165.51,34.61,-102.30
24.235243,-0.3838,-0.1235,-0.9365,-7.45,-36.93,-12.08,-165.47,35.17,-101.97
24.235243,-0.1675,-0.2578,-0.9316,-8.48,-51.33,-13.12,-165.27,35.95,-101.34
24.237435,-0.0723,-0.3569,-0.8979,-2.56,-60.67,1.53,-165.08,37.00,-100.82
24.237435,-0.1167,-0.3892,-0.8247,-0.92,-69.09,20.08,-165.00,38.31,-100.64
24.296843,-0.2686,-0.3242,-0.7344,0.67,-75.74,35.52,-165.11,39.87,-100.84
24.296843,-0.4922,-0.1748,-0.6636,-3.42,-84.78,32.47,-165.33,41.61,-101.17
24.324375,-0.5874,-0.1138,-0.6440,-13.85,-99.73,15.81,-165.47,43.52,-101.10
24.324375,-0.5693,-0.1489,-0.6230,-19.17,-109.80,5.43,-165.42,45.60,-100.55
24.355025,-0.5586,-0.2129,-0.6113,-14.71,-112.79,8.73,-165.25,47.79,-99.84
24.355025,-0.6499,-0.1919,-0.5254,-12.51,-108.34,16.91,-165.12,49.98,-99.32
24.415172,-0.7910,-0.0991,-0.5010,-20.08,-109.74,7.63,-165.01,52.14,-98.78
24.415172,-0.6802,-0.1846,-0.5801,-26.00,-114.69,-5.25,-164.66,54.29,-97.73
24.444317,-0.4644,-0.3521,-0.5454,-26.49,-121.46,3.91,-164.13,56.53,-96.44
24.444317,-0.3833,-0.4194,-0.5137,-18.37,-118.59,37.35,-164.11,58.96,-95.87
24.475105,-0.5840,-0.2031,-0.4600,-10.80,-117.31,55.42,-164.83,61.48,-96.41
24.475105,-0.7495,0.0039,-0.3516,-20.94,-128.85,41.81,-165.65,64.11,-97.00
24.535125,-0.7866,0.0127,-0.3564,-27.71,-144.53,21.12,-165.83,66.92,-96.64
24.535125,-0.6841,-0.0649,-0.3164,-24.41,-154.91,9.52,-164.94,69.88,-95.11
24.564423,-0.5605,-0.1128,-0.2378,-21.00,-158.02,13.79,-163.33,72.94,-92.94
24.564423,-0.4790,-0.1968,-0.1626,-17.21,-167.11,32.59,-161.55,76.16,-90.69
24.595089,-0.6006,-0.1772,0.0010,-4.33,-166.26,57.86,-160.52,79.61,-89.41
24.595089,-0.9233,0.0601,0.2339,-12.39,-165.95,60.12,-160.48,83.16,-89.24
24.655132,-1.0752,0.1514,0.1768,-18.80,-164.79,33.75,-157.01,86.56,-85.44
24.655132,-0.9395,0.0723,0.1875,-25.51,-172.00,12.63,-111.49,89.37,-39.42
24.684460,-0.7490,-0.1279,0.2896,-13.37,-167.36,27.65,-20.02,87.69,52.49
24.684460,-0.9023,-0.0420,0.5562,-5.13,-154.42,60.85,-2.07,84.65,70.64
24.715191,-1.2002,0.1636,0.6328,-14.22,-147.89,65.73,6.17,81.56,79.13
24.715191,-1.3418,0.2935,0.6177,-21.24,-139.40,50.05,9.43,78.53,82.83
24.775116,-1.4307,0.3569,0.5039,-22.28,-122.56,19.65,9.79,75.83,83.66
24.775116,-1.2119,0.2402,0.5220,-16.72,-113.95,-4.46,8.24,73.50,82.42
24.805529,-1.0200,0.1050,0.5459,-16.54,-107.67,3.42,6.78,71.33,81.22
24.805529,-0.9951,0.0879,0.4688,-13.49,-100.59,12.70,6.19,69.24,80.92
24.834513,-1.0088,0.1172,0.3940,-6.35,-95.89,9.03,5.97,67.28,80.89
24.834513,-0.8901,0.0825,0.3877,-4.70,-101.75,-6.16,5.38,65.33,80.34
24.895120,-0.6704,-0.0674,0.5679,-10.86,-113.89,-2.87,4.49,63.20,79.50
24.895120,-0.6099,-0.1802,0.6763,-19.23,-116.76,22.95,4.11,60.85,79.44
24.927056,-0.7559,-0.0176,0.6543,-17.09,-107.67,37.17,4.45,58.57,80.26
24.927056,-0.8833,0.1987,0.5664,-18.25,-110.78,23.50,4.73,56.34,81.01
24.964911,-0.8101,0.2188,0.6128,-19.71,-124.15,-2.14,4.30,54.00,80.93
24.964911,-0.6875,0.1411,0.7407,-36.62,-143.80,-21.61,3.10,51.34,80.11
25.015075,-0.4697,-0.0342,0.7676,-45.10,-159.91,-29.42,1.40,48.33,78.96
25.015075,-0.1992,-0.2695,0.9648,-41.87,-164.79,5.92,0.06,45.05,78.34
25.044242,-0.4902,-0.1816,1.0918,-23.44,-144.59,57.31,0.00,41.93,79.21
25.044242,-1.0845,0.2549,1.1484,-22.83,-125.12,50.29,0.51,39.23,80.66
25.075061,-1.1665,0.3350,1.0566,-30.09,-119.02,-9.52,0.23,36.80,81.06
25.075061,-0.6719,0.0776,0.9609,-37.29,-120.06,-42.05,-0.93,34.41,80.24
25.135296,-0.2275,-0.2061,0.8994,-27.65,-120.48,-22.09,-2.03,32.01,79.40
25.135296,-0.1899,-0.2476,0.9878,-12.57,-116.33,22.83,-2.38,29.63,79.48
25.164361,-0.5293,0.0112,1.0879,-7.26,-111.51,39.86,-2.17,27.38,80.32
25.164361,-0.7920,0.1997,1.0723,-9.95,-109.44,22.64,-2.01,25.18,81.08
25.195132,-0.8809,0.1802,1.0571,-6.47,-108.64,-2.01,-2.08,22.99,81.30
25.195132,-0.7524,0.0122,1.1050,-2.56,-98.82,-10.50,-2.23,20.90,81.15
25.255124,-0.5713,-0.0942,1.3218,-1.71,-64.15,0.18,-2.28,19.24,81.04
25.255124,-0.7124,0.0078,1.2036,-9.77,-33.51,-2.69,-2.38,18.34,81.08
25.284428,-0.5938,0.0977,1.0522,-19.23,-31.25,-24.05,-2.76,17.71,80.79
25.284428,-0.3579,0.0278,0.9160,-16.48,-33.69,-31.31,-3.31,17.05,80.20
25.315188,-0.1182,-0.0645,0.9639,-9.89,-33.81,-19.17,-3.71,16.35,79.67
25.315188,-0.1270,-0.0596,0.9961,-7.75,-34.00,3.48,-3.91,15.67,79.56
25.375124,-0.2900,0.0576,0.9883,-7.08,-30.58,13.49,-3.99,15.03,79.79
25.375124,-0.4199,0.1416,0.9590,-4.64,-28.14,6.23,-4.05,14.45,80.04
25.404657,-0.3652,0.0708,1.0088,-0.31,-21.24,-0.24,-4.08,13.96,80.10
25.404657,-0.3301,0.0049,1.0493,-1.28,-12.94,5.62,-4.07,13.62,80.16
25.435198,-0.4038,0.0049,1.0776,-0.92,-3.30,11.78,-4.04,13.47,80.35
25.435198,-0.4971,0.0698,1.1133,-1.71,8.79,15.56,-4.00,13.55,80.63
25.495118,-0.6748,0.1968,1.0347,1.89,23.13,3.11,-3.97,13.89,80.84
25.495118,-0.5918,0.1089,1.0439,6.47,35.40,-16.54,-3.92,14.47,80.65
25.524392,-0.4233,-0.1055,1.0620,11.90,45.90,-18.37,-3.83,15.29,80.22
25.524392,-0.2900,-0.2417,1.1562,7.08,51.82,2.75,-3.69,16.27,79.99
25.555500,-0.3857,-0.2036,1.1636,8.61,64.39,31.25,-3.44,17.44,80.33
25.555500,-0.6245,-0.0024,1.1182,15.26,83.62,45.47,-2.97,18.96,81.13
25.615189,-0.7910,0.1455,1.1270,26.61,104.25,34.91,-2.26,20.86,81.97
25.615189,-0.8071,0.1748,1.1548,32.78,120.06,11.90,-1.47,23.15,82.45
25.644382,-0.6694,0.1104,1.2046,27.10,124.39,-3.54,-0.83,25.60,82.52
25.644382,-0.5469,0.0210,1.1528,24.11,129.64,-1.40,-0.34,28.16,82.48
25.705558,-0.5693,0.0249,1.0981,23.01,133.48,4.39,0.18,30.79,82.60
25.705558,-0.6260,0.0640,1.0503,28.56,142.03,7.45,0.83,33.54,82.85
25.734330,-0.7676,0.1997,1.0942,32.71,148.25,1.71,1.65,36.46,83.17
25.734330,-0.8926,0.2842,1.1343,19.47,144.35,-21.18,2.16,39.40,83.14
25.765122,-0.7974,0.1460,1.0552,16.66,145.87,-39.61,2.11,42.34,82.53
25.765122,-0.6875,0.0596,0.9902,17.58,151.18,-39.25,1.88,45.36,81.68
25.825151,-0.6919,0.0659,0.8770,17.33,154.36,-32.84,1.66,48.46,80.90
25.825151,-0.8267,0.0845,0.9180,22.83,154.97,-30.21,1.56,51.58,80.21
25.854390,-0.9604,0.0703,1.0229,18.74,160.22,-33.57,1.38,54.77,79.45
25.854390,-1.0146,0.0688,1.1201,6.47,169.01,-44.68,0.72,58.07,78.33
25.885344,-0.8472,-0.0532,0.9053,0.00,183.78,-42.48,-0.59,61.65,76.76
25.885344,-0.7759,-0.0869,0.7017,9.09,194.89,-28.08,-1.84,65.46,75.25
25.945143,-0.9731,0.0654,0.6274,13.67,193.48,-26.79,-2.88,69.36,73.84
25.945143,-0.9790,0.0786,0.6816,9.83,191.16,-44.86,-5.18,73.15,71.14
25.978570,-0.7861,-0.0752,0.5957,8.12,192.14,-42.11,-9.62,76.88,66.35
25.978570,-0.7964,-0.0786,0.5103,13.85,194.95,-30.27,-16.23,80.54,59.36
26.005505,-0.8232,-0.0278,0.4307,12.57,193.30,-31.98,-29.12,83.97,46.05
26.005505,-0.6504,-0.1221,0.3237,11.05,188.78,-30.64,-61.08,86.37,13.72
26.065195,-0.6982,-0.1074,0.2344,14.77,187.13,-17.70,-111.01,86.28,-36.60
26.065195,-0.8066,-0.0156,0.2432,10.99,180.18,-24.72,-139.22,83.84,-65.21
26.094355,-0.7651,-0.0137,0.1411,4.76,176.82,-37.90,-149.95,80.58,-76.21
26.094355,-0.6226,-0.0674,-0.0376,1.46,170.90,-40.53,-154.60,77.16,-81.01
26.125172,-0.5625,-0.1118,-0.0903,6.77,163.70,-30.15,-157.42,73.85,-84.03
26.125172,-0.5571,-0.1538,-0.1392,10.13,158.14,-16.91,-159.70,70.71,-86.63
26.185443,-0.6689,-0.0649,-0.1968,11.84,152.34,-11.66,-161.66,67.73,-88.99
26.185443,-0.6997,-0.0474,-0.2817,11.35,147.58,-17.09,-163.02,64.81,-90.73
26.214930,-0.6543,-0.0903,-0.2944,13.55,143.01,-15.32,-163.87,61.96,-91.99
26.214930,-0.6304,-0.1538,-0.3721,17.88,141.05,-9.77,-164.58,59.18,-93.18
26.245121,-0.6367,-0.1245,-0.4272,25.39,144.78,4.58,-165.34,56.44,-94.62
26.245121,-0.7573,-0.0581,-0.5405,29.54,137.63,-0.85,-165.96,53.72,-96.08
26.307472,-0.6987,-0.0723,-0.4985,31.37,128.23,-13.18,-166.05,51.15,-97.00
26.307472,-0.5210,-0.1621,-0.6030,33.39,118.29,-22.52,-165.75,48.69,-97.44
26.337097,-0.4062,-0.1694,-0.6885,32.17,105.71,-29.60,-165.21,46.38,-97.63
26.337097,-0.2104,-0.2705,-0.7056,24.66,86.79,-34.36,-164.55,44.37,-97.51
26.365441,-0.0757,-0.3711,-0.7778,16.91,71.23,-28.50,-164.01,42.69,-97.33
26.365441,-0.0225,-0.3823,-0.8384,12.21,57.37,-12.82,-163.73,41.36,-97.33
26.425191,-0.1396,-0.3267,-0.9150,14.53,45.59,-3.48,-163.62,40.35,-97.58
26.425191,-0.1899,-0.3159,-0.8652,16.30,37.66,2.32,-163.50,39.57,-97.90
26.454359,-0.3130,-0.2646,-0.8813,15.14,27.71,6.10,-163.43,38.97,-98.29
26.454359,-0.4243,-0.2114,-0.8354,7.87,14.34,3.54,-163.37,38.62,-98.60
26.485073,-0.4746,-0.2017,-0.8496,0.55,0.24,-4.27,-163.32,38.49,-98.64
26.485073,-0.4233,-0.2378,-0.8247,-4.64,-7.45,-6.16,-163.26,38.55,-98.46
26.545189,-0.4219,-0.2417,-0.8618,-3.42,-9.46,-3.11,-163.24,38.68,-98.30
26.545189,-0.4336,-0.2412,-0.8818,-1.28,-13.18,1.83,-163.23,38.89,-98.21
26.574405,-0.4663,-0.2173,-0.8442,1.04,-20.32,1.34,-163.17,39.22,-98.14
26.574405,-0.4512,-0.2446,-0.8228,-5.19,-31.68,-0.31,-163.09,39.72,-97.95
26.605612,-0.4214,-0.2690,-0.8008,-5.98,-40.34,-1.77,-163.00,40.41,-97.63
26.605612,-0.4106,-0.2739,-0.7910,-7.63,-45.84,-2.08,-162.88,41.22,-97.23
26.665382,-0.3813,-0.2695,-0.7979,-5.37,-48.95,-0.18,-162.73,42.11,-96.81
26.665382,-0.3735,-0.2534,-0.8042,-5.43,-57.01,1.89,-162.54,43.12,-96.38
26.694382,-0.3784,-0.2515,-0.7881,-5.92,-68.24,3.66,-162.33,44.32,-95.92
26.694382,-0.2866,-0.2969,-0.7876,-5.55,-80.75,6.65,-162.06,45.77,-95.36
26.725479,-0.1953,-0.3350,-0.7837,3.97,-85.45,22.40,-161.78,47.45,-94.94
26.725479,-0.2583,-0.2891,-0.7300,23.44,-85.45,42.11,-161.56,49.27,-95.03
26.786643,-0.5166,-0.0967,-0.4409,15.44,-98.51,46.69,-161.41,51.28,-95.44
26.786643,-0.7466,-0.0625,-0.4668,-11.23,-124.69,26.00,-161.34,53.66,-95.34
26.815640,-0.6055,-0.1870,-0.4111,-23.68,-139.40,5.68,-160.71,56.26,-94.13
26.815640,-0.4185,-0.4019,-0.5005,-13.67,-135.93,21.91,-159.93,58.92,-92.71
26.845202,-0.5732,-0.2930,-0.2593,1.22,-124.33,53.53,-159.66,61.63,-92.31
26.845202,-0.9575,-0.0317,-0.1787,-14.71,-128.42,46.88,-159.92,64.34,-92.48
26.905592,-0.9722,-0.0215,-0.2432,-26.67,-135.13,22.58,-159.60,67.06,-91.64
26.905592,-0.7681,-0.1978,-0.3354,-18.68,-133.48,16.60,-158.33,69.66,-89.75
26.937160,-0.6733,-0.2588,-0.1870,-1.95,-122.13,42.42,-157.16,72.24,-88.31
26.937160,-0.9087,-0.0786,-0.0991,-4.33,-123.90,53.83,-157.01,74.86,-88.12
26.967157,-1.0063,0.0186,-0.0664,-21.48,-138.98,35.16,-156.18,77.63,-87.00
26.967157,-0.8599,-0.0493,-0.1274,-25.33,-143.13,20.45,-152.71,80.41,-82.95
27.025128,-0.6919,-0.1587,-0.1099,-10.74,-141.36,26.12,-145.83,83.05,-75.62
27.025128,-0.6851,-0.1392,-0.0352,2.14,-129.64,46.94,-135.27,85.59,-64.91
27.054354,-0.7632,-0.0088,0.1738,4.52,-130.92,57.50,-112.27,87.92,-42.00
27.054354,-0.8408,0.0088,0.1992,-17.21,-148.13,55.42,-42.46,88.45,28.02
27.115960,-0.7578,-0.0469,0.3013,-15.26,-150.57,70.01,-5.21,85.97,65.67
27.115960,-0.9961,0.1455,0.3330,-13.37,-142.27,70.74,6.80,83.00,78.01
27.144406,-0.9941,0.1860,0.3623,-16.11,-142.46,50.29,10.61,79.99,82.18
27.144406,-0.8926,0.1143,0.4468,-18.92,-149.35,40.41,11.33,76.98,83.26
27.175188,-0.8936,0.1050,0.6514,-23.07,-151.49,53.28,11.74,73.79,84.13
27.175188,-1.1577,0.3101,0.6353,-22.52,-142.58,39.06,12.13,70.72,85.01
27.235249,-1.1729,0.4209,0.5073,-30.21,-143.62,-6.47,10.79,67.87,84.14
27.235249,-0.8379,0.3057,0.3052,-25.09,-147.03,-50.23,7.67,65.13,81.33
27.266056,-0.2593,-0.0781,0.3125,-4.46,-164.49,-45.53,4.48,62.21,78.09
27.266056,-0.0171,-0.2910,0.8008,18.07,-169.80,22.40,3.67,58.86,76.96
27.295122,-0.4766,-0.0361,1.2041,15.56,-157.90,80.38,5.26,55.48,78.41
27.295122,-1.1143,0.3521,1.2261,-5.98,-152.10,71.29,6.98,52.21,80.43
27.355256,-1.2490,0.4565,1.0444,-26.00,-153.81,14.95,7.10,49.06,81.04
27.355256,-0.9038,0.3291,0.8550,-28.63,-160.28,-30.70,5.83,45.98,80.07
27.384528,-0.4233,0.1162,0.8613,-19.65,-161.99,-39.00,4.26,42.85,78.49
27.384528,-0.1318,-0.0986,0.9268,-5.74,-158.81,-7.26,3.34,39.69,77.46
27.416202,-0.1748,-0.1123,1.1108,7.81,-150.76,37.66,3.45,36.58,77.56
27.416202,-0.5107,0.1167,1.2568,3.42,-143.68,55.85,4.09,33.57,78.46
27.475219,-0.7788,0.2744,1.2275,-6.90,-144.41,39.86,4.46,30.60,79.26
27.475219,-0.8101,0.2739,1.2148,-9.09,-137.94,18.55,4.43,27.71,79.56
27.504713,-0.6865,0.1538,1.2432,-4.64,-113.59,13.49,4.31,25.16,79.58
27.504713,-0.6396,0.0474,1.1660,4.94,-80.20,22.64,4.38,23.23,79.76
27.535204,-0.7310,0.0542,1.1646,9.22,-60.42,21.73,4.69,21.83,80.12
27.535204,-0.7715,0.1353,1.2080,-8.67,-70.50,0.43,4.76,20.53,80.23
27.595193,-0.5840,0.0645,1.1758,-30.76,-85.08,-19.78,4.19,18.98,79.79
27.595193,-0.3677,-0.0596,1.1040,-32.17,-79.35,-12.33,3.36,17.34,79.26
27.624424,-0.3994,-0.0112,1.0420,-17.64,-58.65,10.74,2.83,15.97,79.15
27.624424,-0.6328,0.1953,1.0850,-7.32,-37.29,11.11,2.66,15.01,79.36
27.655163,-0.6118,0.2710,1.0645,-8.30,-24.84,-8.48,2.52,14.42,79.33
27.655163,-0.4229,0.1958,0.9551,-6.71,-19.78,-22.52,2.27,14.01,78.95
27.716433,-0.2251,0.1167,0.9111,-0.98,-18.13,-24.60,2.08,13.68,78.41
27.716433,-0.0977,0.0566,0.9595,1.22,-22.83,-14.95,1.99,13.29,77.97
27.744465,-0.0908,0.0605,1.0371,-2.69,-24.11,3.30,1.96,12.82,77.83
27.744465,-0.2549,0.1357,1.0015,-5.62,-22.34,10.50,1.90,12.34,77.98
27.775208,-0.3604,0.1353,0.9780,-4.09,-19.23,5.43,1.82,11.91,78.12
27.775208,-0.3853,0.1445,0.9912,-1.89,-14.16,-1.10,1.78,11.59,78.14
27.835257,-0.3643,0.1382,1.0054,-1.04,-13.49,-11.11,1.74,11.32,77.99
27.835257,-0.2271,0.0288,1.0386,-3.23,-10.50,-10.74,1.65,11.10,77.73
27.867635,-0.2046,-0.0005,1.0122,-4.94,-9.03,-1.10,1.54,10.91,77.60
27.867635,-0.3169,0.0239,1.0166,-4.76,-7.51,4.39,1.45,10.74,77.64
27.895187,-0.3789,0.0254,1.1060,-4.88,0.85,2.99,1.37,10.66,77.71
27.895187,-0.4067,0.0283,1.0864,-6.71,12.76,4.70,1.27,10.81,77.79
27.955197,-0.4473,0.0752,1.0610,-9.70,20.39,2.56,1.13,11.16,77.89
27.955197,-0.4043,0.0527,1.1240,-13.31,22.77,-1.40,0.91,11.59,77.91
27.984418,-0.3208,-0.0059,1.1392,-21.12,30.88,5.68,0.57,12.13,77.96
27.984418,-0.3364,0.0420,1.0820,-20.75,42.42,16.30,0.20,12.86,78.22
28.020853,-0.4341,0.0972,0.9995,-14.04,53.47,20.02,-0.07,13.82,78.63
28.020853,-0.4927,0.1445,1.0430,-7.32,63.60,17.76,-0.16,14.99,79.06
28.075165,-0.4878,0.1587,1.0474,-2.81,75.99,13.37,-0.18,16.39,79.41
28.075165,-0.5068,0.1470,0.9707,4.39,80.69,8.30,-0.08,17.98,79.67
28.104617,-0.5015,0.1094,0.9668,11.66,82.95,6.10,0.15,19.62,79.86
28.104617,-0.6147,0.1382,1.0649,11.60,79.28,-1.71,0.45,21.24,79.97
28.135663,-0.5654,0.0566,1.1553,2.56,86.00,-7.08,0.57,22.89,79.91
28.135663,-0.5405,0.0020,1.0571,3.17,100.40,0.98,0.60,24.76,79.90
28.195232,-0.6587,0.1650,0.9976,12.27,115.48,5.00,0.86,26.94,80.10
28.195232,-0.8862,0.2993,0.9375,12.15,108.58,-28.26,1.08,29.23,79.99
28.224444,-0.6064,0.0820,1.0361,-2.20,96.44,-58.11,0.69,31.31,79.00
28.224444,-0.2749,-0.2466,1.0093,-4.76,99.30,-32.59,0.02,33.27,77.92
28.255248,-0.4297,-0.1719,1.1411,6.41,116.94,14.71,0.01,35.43,77.83
28.255248,-0.8267,0.1250,1.2354,10.74,145.26,36.25,0.67,38.05,78.66
28.316845,-1.2520,0.5054,1.1323,13.79,166.50,5.74,1.44,41.19,79.48
28.316845,-1.2007,0.5034,1.0718,10.25,160.52,-57.07,1.33,44.52,78.93
28.344964,-0.7676,0.1597,1.1948,1.65,158.20,-79.41,0.08,47.72,77.01
28.344964,-0.4116,-0.1729,1.1748,1.40,176.45,-41.08,-1.28,51.09,75.18
28.375224,-0.5645,-0.1377,1.0532,12.33,198.79,7.93,-1.45,54.87,74.77
28.375224,-0.8994,0.0938,0.9019,20.63,211.98,19.65,-0.51,59.00,75.48
28.435281,-1.1816,0.2812,0.7305,24.48,203.61,-16.11,0.30,63.19,75.86
28.435281,-1.0576,0.2207,0.7241,13.00,184.14,-59.88,-0.84,67.07,74.17
28.464458,-0.6519,-0.1025,0.6997,8.36,181.34,-64.82,-4.13,70.67,70.43
28.464458,-0.4795,-0.2822,0.6348,14.47,191.53,-19.29,-7.30,74.31,66.85
28.525216,-0.7847,-0.1240,0.5669,25.63,202.15,12.39,-8.55,78.26,65.11
28.525216,-1.1328,0.1152,0.5562,23.56,202.39,5.62,-9.58,82.30,63.54
28.554716,-1.1943,0.2021,0.4136,16.60,196.29,-34.48,-19.67,86.15,53.00
28.554716,-0.9351,0.0942,0.3506,11.17,185.91,-59.20,-77.39,88.27,-5.08
28.585333,-0.6025,-0.1309,0.2783,14.95,187.99,-52.31,-132.03,86.00,-60.06
28.585333,-0.6055,-0.1865,0.2095,24.84,196.35,-14.47,-149.62,82.63,-78.17
28.645242,-0.8506,-0.0259,0.1699,24.90,196.23,-8.12,-158.62,79.05,-87.82
28.645242,-0.9761,0.0806,0.0645,21.67,191.89,-25.94,-162.69,75.31,-92.48
28.674459,-0.8735,0.0894,0.0674,17.76,187.38,-49.93,-163.70,71.49,-93.97
28.674459,-0.6699,0.0166,-0.0601,12.51,182.68,-70.68,-163.32,67.58,-93.88
28.705671,-0.4346,-0.0874,-0.1919,11.11,177.31,-63.96,-162.76,63.76,-93.52
28.705671,-0.3989,-0.0889,-0.2783,13.00,165.34,-63.96,-162.33,60.10,-93.32
28.765224,-0.2334,-0.2329,-0.3364,10.13,150.88,-60.73,-161.86,56.70,-93.05
28.765224,-0.1597,-0.3237,-0.4053,6.65,136.47,-51.82,-161.58,53.64,-92.90
28.794800,-0.1514,-0.3628,-0.4810,8.48,125.73,-37.60,-161.51,50.89,-93.02
28.794800,-0.2051,-0.3232,-0.4805,4.03,110.72,-21.30,-161.66,48.48,-93.42
28.825210,-0.3125,-0.2964,-0.5337,-1.16,99.67,-4.09,-162.14,46.44,-94.09
28.825210,-0.5327,-0.2061,-0.5747,0.55,99.98,9.16,-162.85,44.58,-95.11
28.885243,-0.7769,-0.0830,-0.6558,1.10,102.97,5.07,-163.59,42.72,-96.23
28.885243,-0.8237,-0.0264,-0.7549,1.71,102.36,-19.71,-163.98,40.72,-96.89
28.914460,-0.5972,-0.0874,-0.8755,-2.38,91.98,-47.24,-163.93,38.65,-96.80
28.914460,-0.1714,-0.3149,-0.9946,-0.79,80.38,-53.83,-163.60,36.70,-96.19
28.947232,0.0815,-0.4697,-1.0376,4.94,71.35,-33.08,-163.30,35.00,-95.75
28.947232,0.0469,-0.4517,-1.0317,10.01,60.42,-13.31,-163.14,33.62,-95.77
29.005639,-0.0381,-0.3584,-0.9619,6.10,46.39,-3.36,-163.09,32.56,-96.00
29.005639,-0.1797,-0.2515,-0.9717,2.87,31.31,-0.98,-163.14,31.83,-96.27
29.039453,-0.2905,-0.1982,-0.9639,2.50,12.82,-5.98,-163.13,31.40,-96.37
29.039453,-0.2603,-0.2363,-0.8979,0.31,-1.04,-6.47,-163.04,31.27,-96.26
29.064654,-0.2563,-0.2734,-0.8789,1.40,-8.54,5.92,-163.00,31.37,-96.22
29.064654,-0.3428,-0.2051,-0.8574,2.81,-11.60,10.50,-163.03,31.63,-96.37
29.125288,-0.4038,-0.1489,-0.9180,4.09,-19.35,1.34,-162.98,31.95,-96.41
29.125288,-0.2974,-0.2046,-0.8818,4.52,-29.48,-5.25,-162.75,32.40,-96.17
29.154431,-0.1777,-0.3115,-0.8672,1.71,-39.79,1.53,-162.53,33.05,-95.86
29.154431,-0.1177,-0.3916,-0.8389,4.21,-41.93,23.07,-162.45,33.93,-95.82
29.185344,-0.3198,-0.2598,-0.8237,6.41,-45.29,32.41,-162.53,34.94,-96.19
29.185344,-0.4688,-0.1421,-0.8481,5.80,-54.44,16.97,-162.53,36.04,-96.40
29.245689,-0.4150,-0.1689,-0.8257,3.36,-73.30,-3.72,-162.19,37.28,-96.01
29.245689,-0.2324,-0.3540,-0.7397,2.56,-83.50,1.59,-161.68,38.77,-95.26
29.274501,-0.1865,-0.4482,-0.6719,5.19,-80.69,34.85,-161.44,40.45,-95.00
29.274501,-0.4517,-0.2837,-0.6489,9.77,-75.50,54.57,-161.60,42.23,-95.51
29.305497,-0.7305,-0.0776,-0.6211,6.59,-84.17,35.10,-161.75,44.02,-96.00
29.305497,-0.7124,-0.0811,-0.5811,-5.37,-103.39,1.16,-161.42,45.92,-95.55
29.365225,-0.4819,-0.2651,-0.6206,-8.73,-114.07,-10.01,-160.64,47.92,-94.24
29.365225,-0.3271,-0.3940,-0.5781,0.00,-110.60,13.24,-159.82,50.03,-93.04
29.395625,-0.4404,-0.3301,-0.4536,2.38,-108.83,45.04,-159.48,52.28,-92.66
29.395625,-0.7261,-0.1475,-0.4541,-3.11,-112.79,49.99,-159.65,54.70,-92.87
29.424432,-0.8813,-0.0166,-0.4736,-7.02,-120.91,23.99,-159.52,57.16,-92.58
29.424432,-0.7534,-0.0874,-0.4604,-7.39,-132.26,0.67,-158.42,59.56,-91.13
29.485327,-0.6011,-0.2847,-0.4004,-7.20,-138.55,10.62,-156.79,62.09,-89.04
29.485327,-0.6826,-0.2632,-0.2617,2.14,-131.90,35.58,-155.42,64.74,-87.49
29.514464,-0.8936,-0.1279,-0.2207,2.56,-127.50,39.18,-154.43,67.41,-86.45
29.514464,-0.8960,-0.0713,-0.1665,-1.89,-132.63,27.47,-152.87,70.00,-84.81
29.545276,-0.8281,-0.1265,-0.1753,-6.41,-140.01,22.09,-150.32,72.60,-82.00
29.545276,-0.8115,-0.1177,-0.0625,-8.24,-143.80,21.12,-146.51,75.23,-77.88
29.605598,-0.8218,-0.1455,-0.0547,-4.94,-140.87,18.80,-141.12,77.72,-72.16
29.605598,-0.8262,-0.1128,0.0332,-3.60,-136.84,25.39,-133.48,80.04,-64.28
29.634777,-0.9004,-0.0098,-0.0044,12.88,-121.22,29.66,-123.38,82.05,-54.14
29.634777,-1.0317,0.1440,0.0752,15.99,-123.72,12.51,-109.01,83.47,-39.98
29.665250,-0.7388,-0.0669,0.1387,-6.35,-147.83,5.92,-86.97,83.89,-17.83
29.665250,-0.7061,-0.1602,0.2295,7.14,-140.69,36.87,-63.26,83.49,6.05
29.725259,-1.0166,0.0615,0.3174,5.80,-138.06,38.57,-43.49,82.44,25.83
29.725259,-0.9531,0.0322,0.3218,1.22,-143.86,22.09,-30.50,80.46,38.92
29.754634,-0.6685,-0.1484,0.3848,1.59,-146.12,35.22,-22.15,78.04,47.42
29.754634,-0.7192,-0.1621,0.5415,9.34,-141.11,68.60,-14.54,75.59,55.13
29.785298,-0.9575,0.0322,0.6733,1.10,-137.76,79.77,-7.67,73.11,62.16
29.785298,-0.9868,0.1143,0.5747,-7.39,-139.10,71.53,-2.85,70.44,67.34
29.845238,-0.9067,0.1089,0.4912,-2.50,-139.59,66.71,0.45,67.65,71.02
29.845238,-0.8828,0.1357,0.5698,4.21,-142.64,65.67,3.06,64.76,73.83
29.874443,-0.8901,0.1650,0.6846,-3.97,-155.46,61.04,4.96,61.68,75.95
29.874443,-0.7368,0.0376,0.7910,-7.20,-162.35,69.03,6.27,58.34,77.63
29.939800,-0.7944,0.0923,1.0264,-8.54,-144.59,87.40,7.78,55.04,79.62
29.939800,-1.1372,0.3135,0.9492,-16.11,-127.38,75.44,9.13,52.11,81.62
29.964460,-1.2129,0.3530,0.7671,-18.86,-128.97,36.38,9.50,49.40,82.57
29.964460,-0.9927,0.2373,0.7720,-13.24,-127.38,9.03,9.08,46.79,82.44
29.995260,-0.8467,0.1338,0.7686,-3.91,-121.70,1.59,8.56,44.33,81.93
29.995260,-0.7861,0.1245,0.8945,-1.34,-124.57,-3.54,8.14,41.92,81.34
30.055406,-0.6592,0.0708,1.0273,-10.01,-124.63,-5.55,7.60,39.46,80.67
30.055406,-0.6323,0.1040,0.9780,-16.30,-117.25,-3.42,6.99,37.09,80.11
30.092596,-0.6831,0.1782,0.8853,-17.40,-122.31,-20.02,6.27,34.78,79.45
30.092596,-0.4839,0.1152,1.0166,-28.63,-139.16,-37.11,5.23,32.24,78.33
30.115151,-0.1953,-0.0903,1.1094,-37.66,-143.13,-25.51,3.97,29.47,77.20
30.115151,-0.1665,-0.1177,1.1445,-34.42,-128.05,10.80,3.04,26.77,76.78
30.175570,-0.4355,0.0806,1.0986,-24.78,-107.67,32.29,2.61,24.40,77.14
30.175570,-0.7207,0.2622,1.0410,-17.76,-97.23,19.35,2.37,22.34,77.59
30.206282,-0.7407,0.2578,1.0547,-15.81,-93.38,-9.52,2.03,20.43,77.54
30.206282,-0.5693,0.1167,1.0713,-12.15,-82.58,-23.01,1.59,18.68,77.04
30.235607,-0.3955,0.0010,1.1079,-2.81,-59.57,-13.00,1.30,17.28,76.56
30.235607,-0.5127,0.0679,1.0620,8.97,-32.23,-1.59,1.32,16.39,76.40
30.295264,-0.6079,0.1631,1.0649,11.66,-16.85,-4.21,1.55,15.95,76.33
30.295264,-0.6294,0.1860,1.0918,-1.46,-20.87,-21.79,1.59,15.60,76.04
30.324477,-0.3960,0.0674,1.0527,-12.15,-24.05,-32.10,1.27,15.17,75.42
30.324477,-0.1440,-0.0566,0.9531,-11.05,-21.67,-14.10,0.88,14.73,74.88
30.355332,-0.1309,-0.0396,0.9648,-2.50,-15.87,14.83,0.77,14.36,74.90
30.355332,-0.3857,0.1123,1.0020,-1.10,-12.02,26.00,0.86,14.07,75.37
30.415294,-0.5913,0.2383,1.0044,-4.70,-13.79,8.36,0.89,13.81,75.74
30.415294,-0.4658,0.1768,1.0034,-8.06,-14.28,-10.38,0.74,13.52,75.66
30.444545,-0.3477,0.0864,0.9927,-4.64,-9.34,-14.10,0.55,13.29,75.38
30.444545,-0.2783,0.0332,1.0322,-0.92,2.75,-7.81,0.45,13.24,75.15
30.475705,-0.3154,0.0366,1.0420,1.22,10.50,-0.24,0.46,13.40,75.08
30.475705,-0.4219,0.0908,1.0840,-1.40,16.11,0.37,0.47,13.66,75.10
30.537568,-0.5059,0.1597,1.0166,-2.62,24.90,-9.40,0.41,14.09,75.04
30.537568,-0.4268,0.1411,0.9482,-0.73,29.30,-23.25,0.30,14.65,74.70
30.564498,-0.2466,-0.0210,0.9780,2.69,28.14,-28.32,0.20,15.24,74.15
30.564498,-0.1172,-0.1792,1.0610,1.04,31.37,-7.45,0.14,15.85,73.77
30.595269,-0.2485,-0.1387,1.1362,0.49,42.05,21.18,0.21,16.57,73.97
30.595269,-0.5146,0.0479,1.1680,-2.93,58.65,33.14,0.37,17.57,74.61
30.655837,-0.7451,0.2104,1.0483,-1.10,76.66,24.66,0.52,18.92,75.29
30.655837,-0.8330,0.2476,0.9780,11.72,92.29,-1.34,0.74,20.63,75.60
30.686020,-0.6885,0.1177,1.0679,15.14,97.23,-21.36,0.96,22.55,75.38
30.686020,-0.4346,-0.0898,1.1968,7.26,103.52,-13.31,1.07,24.57,75.05
30.715209,-0.4238,-0.1357,1.0894,3.97,114.14,11.29,1.21,26.77,75.16
30.715209,-0.5913,0.0112,1.0352,5.43,118.16,24.05,1.57,29.08,75.73
30.775261,-0.7705,0.1787,1.0293,5.43,119.51,18.80,2.02,31.44,76.39
30.775261,-0.9312,0.2886,1.0278,1.65,120.12,2.62,2.32,33.82,76.84
30.804795,-0.9932,0.3154,1.0581,2.14,124.33,-23.19,2.32,36.27,76.77
30.804795,-0.8032,0.1880,1.1079,1.83,138.43,-33.75,2.02,38.94,76.19
30.836076,-0.7441,0.0947,1.0264,8.06,151.79,-20.87,1.81,41.89,75.70
30.836076,-0.9165,0.1768,1.0625,11.17,157.23,-14.40,1.90,45.01,75.52
30.895252,-1.0703,0.2632,1.0591,6.04,159.18,-32.47,1.81,48.20,75.15
30.895252,-0.8394,0.1201,0.9805,5.13,168.82,-42.24,1.18,51.53,74.18
30.924501,-0.6875,-0.0239,0.8936,14.10,181.03,-26.00,0.64,55.06,73.26
30.924501,-0.8394,0.0000,0.8701,28.75,193.24,-4.27,0.92,58.82,73.06
30.954591,-1.1582,0.2070,0.9507,28.75,194.34,-13.67,1.64,62.73,73.18
30.954591,-1.1631,0.2407,0.9004,22.03,194.40,-46.20,1.30,66.63,72.25
31.015108,-0.9146,0.1221,0.7588,21.48,198.67,-68.05,-0.91,70.60,69.41
31.015108,-0.6382,-0.0615,0.6572,26.49,201.11,-65.25,-4.88,74.57,64.71
31.044472,-0.4746,-0.1914,0.5845,27.77,199.28,-41.32,-10.23,78.45,58.62
31.044472,-0.6240,-0.1392,0.4575,28.75,196.47,-17.52,-17.03,82.22,51.14
31.075250,-0.8076,-0.0098,0.4614,26.43,190.00,-19.10,-31.66,85.68,35.84
31.075250,-0.8706,0.0601,0.3818,18.74,184.02,-29.36,-78.43,87.69,-11.48
31.136002,-0.8052,0.0645,0.2803,13.79,174.93,-39.67,-128.92,86.08,-62.39
31.136002,-0.6675,-0.0376,0.1675,14.71,170.90,-36.13,-145.64,83.02,-79.49
31.164437,-0.5840,-0.1343,0.1299,20.26,174.13,-14.34,-153.63,79.84,-87.93
31.164437,-0.8188,-0.0215,0.0034,27.28,177.25,-4.21,-159.39,76.58,-94.35
31.195284,-0.8892,0.0112,0.0137,21.85,166.75,-19.71,-162.34,73.28,-97.94
31.195284,-0.8315,-0.0415,-0.1035,18.49,163.51,-33.69,-163.49,69.98,-99.58
31.255349,-0.6650,-0.1255,-0.1929,14.89,157.17,-37.60,-163.81,66.71,-100.28
31.255349,-0.5708,-0.2114,-0.2988,18.31,155.82,-26.43,-164.15,63.54,-101.03
31.284495,-0.5122,-0.2671,-0.4111,20.69,155.40,-13.49,-164.72,60.45,-102.13
31.284495,-0.5728,-0.2319,-0.4888,26.25,154.30,-0.43,-165.49,57.45,-103.59
31.345255,-0.7690,-0.1030,-0.4941,25.51,151.00,-8.67,-166.09,54.50,-104.97
31.345255,-0.8218,-0.0532,-0.4814,17.40,144.10,-42.30,-166.04,51.52,-105.46
31.374477,-0.5703,-0.1787,-0.5415,6.96,129.94,-72.14,-165.33,48.57,-104.85
31.374477,-0.1558,-0.4189,-0.5610,-0.31,119.75,-58.65,-164.62,45.82,-103.95
31.405517,-0.0933,-0.4648,-0.6030,4.03,126.10,-10.74,-164.65,43.29,-104.03
31.405517,-0.4795,-0.1484,-0.6489,10.80,128.23,16.36,-165.25,40.88,-105.21
31.465245,-0.8530,0.1919,-0.6958,10.31,120.24,-12.08,-165.68,38.51,-106.25
31.465245,-0.7314,0.2227,-0.7612,6.90,103.21,-65.19,-165.38,36.15,-106.05
31.494457,-0.2236,-0.0210,-0.8013,4.76,88.13,-93.69,-164.55,33.87,-104.78
31.494457,0.2598,-0.3530,-0.9312,6.77,74.58,-80.63,-163.68,31.79,-103.34
31.525207,0.4561,-0.4980,-0.9736,11.11,58.41,-48.89,-163.03,30.14,-102.42
31.525207,0.4019,-0.5161,-1.0000,10.80,33.51,-18.86,-162.62,29.06,-102.07
31.587645,0.1855,-0.4360,-0.9478,4.27,4.76,0.06,-162.45,28.67,-102.05
31.587645,-0.0718,-0.3433,-0.9204,-1.59,-18.19,9.46,-162.47,28.87,-102.12
31.614478,-0.2993,-0.2402,-0.8442,-2.81,-28.02,11.17,-162.54,29.40,-102.19
31.614478,-0.4404,-0.1836,-0.8252,-6.53,-28.63,8.73,-162.64,30.01,-102.21
31.645266,-0.4854,-0.2075,-0.8657,-4.15,-28.44,7.57,-162.73,30.61,-102.18
31.645266,-0.4678,-0.2271,-0.8320,-2.26,-24.84,8.18,-162.78,31.17,-102.17
31.705571,-0.4326,-0.2471,-0.8892,-0.67,-25.39,7.45,-162.81,31.68,-102.19
31.705571,-0.3594,-0.2612,-0.8926,-0.67,-32.35,1.16,-162.76,32.26,-102.08
31.734445,-0.2656,-0.2949,-0.9097,-0.73,-42.30,-2.81,-162.62,32.95,-101.78
31.734445,-0.1426,-0.3306,-0.8867,-2.14,-55.36,-2.14,-162.41,33.87,-101.35
31.765403,-0.0244,-0.4014,-0.8442,-4.39,-70.50,8.91,-162.22,35.08,-100.91
31.765403,0.0010,-0.4351,-0.8179,-4.27,-79.35,35.83,-162.28,36.66,-100.85
31.825265,-0.1978,-0.3193,-0.7734,-2.01,-88.81,52.12,-162.59,38.55,-101.27
31.825265,-0.4106,-0.1846,-0.6992,-7.14,-103.21,44.37,-162.94,40.68,-101.71
31.854568,-0.4824,-0.1309,-0.6187,-14.22,-121.40,26.73,-163.11,43.04,-101.66
31.854568,-0.4419,-0.1724,-0.6304,-19.84,-131.77,14.16,-163.05,45.59,-101.05
31.885241,-0.4092,-0.1860,-0.6543,-8.61,-132.08,18.19,-162.78,48.20,-100.28
31.885241,-0.4658,-0.1216,-0.5542,-1.40,-133.48,24.05,-162.35,50.83,-99.61
31.945637,-0.5620,-0.0938,-0.4531,-6.35,-148.13,26.37,-161.86,53.66,-98.91
31.945637,-0.5615,-0.1602,-0.3755,-11.41,-156.74,29.79,-161.31,56.73,-98.00
31.974842,-0.6191,-0.1514,-0.3184,-8.85,-155.76,38.82,-160.83,59.90,-97.21
31.974842,-0.7480,-0.1016,-0.2974,-1.10,-147.03,41.87,-160.42,63.03,-96.61
32.005676,-0.8643,-0.0181,-0.1904,1.89,-148.80,27.10,-159.52,65.99,-95.67
32.005676,-0.7954,-0.1147,-0.1377,-8.85,-157.23,22.52,-157.85,69.02,-93.76
32.065249,-0.8477,-0.1021,-0.0713,-8.73,-159.61,28.26,-155.69,72.11,-91.29
32.065249,-0.9316,-0.0337,-0.0430,-11.05,-158.26,21.12,-152.63,75.17,-87.87
32.094474,-0.8643,-0.0459,-0.1538,-4.76,-150.15,11.35,-147.59,77.96,-82.50
32.094474,-0.7939,-0.0337,-0.1226,-0.06,-159.79,0.12,-138.72,80.44,-73.43
32.131017,-0.6382,-0.1450,0.0498,-5.43,-174.56,4.76,-122.82,82.61,-57.28
32.131017,-0.5986,-0.2065,0.1079,-2.32,-178.10,25.76,-97.77,84.09,-31.93
32.185194,-0.6802,-0.1016,0.1919,-0.18,-178.28,34.06,-66.49,84.14,-0.44
32.185194,-0.7100,-0.0664,0.1948,5.74,-179.32,33.94,-41.45,82.47,24.75
32.214520,-0.6523,-0.1240,0.3784,11.90,-187.87,40.10,-26.23,79.74,39.97
32.214520,-0.7305,-0.1475,0.6963,4.88,-189.03,64.64,-15.89,76.51,50.39
32.245332,-0.9922,0.0415,0.8403,-5.37,-180.30,70.56,-8.61,73.14,57.94
32.245332,-1.1406,0.1792,0.6870,-15.99,-177.25,43.33,-4.65,69.71,62.39
32.305627,-0.8955,0.0894,0.6821,-12.39,-181.21,24.90,-3.12,66.14,64.36
32.305627,-0.7070,-0.0557,0.8110,4.33,-169.49,49.38,-1.68,62.63,66.07
32.337598,-0.9941,0.0801,1.1230,8.97,-162.84,77.39,0.71,59.30,68.62
32.337598,-1.4219,0.3091,1.2314,-1.22,-143.25,69.03,2.88,56.14,71.11
32.367171,-1.6582,0.4731,1.0513,-11.17,-128.36,11.90,3.62,53.40,72.16
32.367171,-1.3965,0.3931,0.8306,-26.12,-132.02,-57.74,2.35,50.87,71.00
32.425237,-0.5938,-0.0415,0.6309,-29.42,-137.39,-81.12,-0.15,48.22,68.48
32.425237,0.0679,-0.5273,0.6699,-3.60,-122.86,-9.64,-1.55,45.59,67.01
32.454483,-0.2061,-0.4126,0.8965,24.72,-96.98,76.97,-0.54,43.42,68.10
32.454483,-0.8403,0.0610,1.1060,19.17,-86.18,97.11,1.58,41.56,70.54
32.485275,-1.1733,0.3838,1.0703,-5.37,-91.98,51.57,2.90,39.69,72.38
32.485275,-0.9951,0.3672,0.8267,-24.23,-106.81,-4.76,2.76,37.68,72.70
32.545267,-0.5732,0.1655,0.7471,-20.57,-119.63,-24.66,1.90,35.41,72.04
32.545267,-0.3232,0.0288,0.8667,-4.21,-114.07,-5.98,1.35,33.07,71.49
32.574399,-0.3413,0.0952,1.0698,4.94,-94.79,19.04,1.43,30.98,71.55
32.574399,-0.4785,0.2080,1.0337,5.68,-81.79,25.27,1.76,29.23,72.00
32.605725,-0.5518,0.3037,0.9629,-1.16,-87.83,7.93,1.96,27.53,72.29
32.605725,-0.3853,0.2056,0.8628,-7.39,-102.54,-11.47,1.77,25.64,72.10
32.665269,-0.1494,0.0044,0.9131,-2.87,-109.31,-5.37,1.52,23.51,71.74
32.665269,-0.0854,-0.1055,1.0503,5.13,-101.44,23.74,1.58,21.37,71.81
32.694514,-0.3403,-0.0229,1.1216,9.58,-91.13,44.86,1.97,19.42,72.48
32.694514,-0.5972,0.1089,1.1382,5.43,-87.77,42.54,2.38,17.59,73.32
32.755076,-0.6982,0.1436,1.1460,4.39,-84.84,21.55,2.63,15.81,73.85
32.755076,-0.6450,0.0737,1.2017,0.98,-75.50,4.39,2.71,14.19,73.97
32.784487,-0.5005,-0.0171,1.2378,-0.31,-55.18,3.85,2.71,12.87,73.92
32.784487,-0.5044,0.0088,1.1924,2.20,-33.45,10.80,2.76,12.01,74.02
32.815252,-0.5312,0.1011,1.1338,-3.42,-23.68,5.25,2.79,11.45,74.16
32.815252,-0.4365,0.1128,1.0400,-6.90,-23.32,-5.31,2.66,10.99,74.11
32.875364,-0.2803,0.0786,1.0347,-6.84,-20.57,-8.54,2.49,10.56,73.92
32.875364,-0.2119,0.0791,1.0332,-7.51,-20.14,-7.63,2.32,10.17,73.72
32.905067,-0.1167,0.0454,1.0088,-10.86,-21.30,0.55,2.11,9.77,73.61
32.905067,-0.1436,0.0815,1.0054,-11.23,-20.57,18.19,1.92,9.33,73.78
32.935308,-0.3970,0.2178,0.9688,-6.10,-13.49,21.67,1.80,8.95,74.21
32.935308,-0.4995,0.2593,1.0132,0.43,0.49,3.36,1.80,8.82,74.47
32.995271,-0.3833,0.1895,1.0361,1.77,10.31,-14.40,1.81,8.95,74.33
32.995271,-0.2295,0.0767,1.0293,-0.37,14.47,-17.52,1.79,9.24,73.99
33.024521,-0.1851,-0.0024,1.0181,-3.23,13.61,-12.39,1.71,9.54,73.70
33.024521,-0.1680,-0.0781,1.0684,-3.11,19.17,-0.06,1.62,9.86,73.58
33.055322,-0.2803,-0.0088,1.1143,-2.20,35.16,16.60,1.61,10.40,73.80
33.055322,-0.5083,0.1270,1.1064,-0.67,47.06,11.29,1.66,11.23,74.16
33.115237,-0.4683,0.0933,1.1831,-4.52,57.25,1.16,1.63,12.27,74.32
33.115237,-0.4404,0.0542,1.1987,-3.72,74.40,1.77,1.56,13.59,74.41
33.151453,-0.4858,0.1240,1.1743,-3.30,90.21,-0.31,1.53,15.26,74.53
33.151453,-0.5103,0.1704,1.0708,-2.44,98.63,-7.69,1.47,17.17,74.55
33.175263,-0.4497,0.1016,1.0928,4.64,106.51,-14.04,1.46,19.23,74.40
33.175263,-0.3926,0.0210,1.1509,7.57,120.48,-11.84,1.54,21.52,74.24
33.235630,-0.3804,-0.0562,1.1582,3.11,130.43,3.85,1.67,24.05,74.30
33.235630,-0.5615,0.0273,1.1162,0.98,141.42,18.86,1.91,26.76,74.75
33.264479,-0.7822,0.1846,1.0630,-1.04,146.97,12.82,2.18,29.64,75.34
33.264479,-0.8320,0.2759,1.0229,-0.18,151.06,-4.27,2.33,32.61,75.66
33.295265,-0.8374,0.2388,0.9072,4.52,148.62,-25.51,2.30,35.64,75.54
33.295265,-0.7188,0.0835,0.9707,7.57,145.81,-36.99,2.09,38.62,74.95
33.355546,-0.5879,-0.0640,1.0469,4.21,147.09,-23.74,1.83,41.58,74.34
33.355546,-0.6704,0.0278,1.0303,3.11,158.45,-3.05,1.86,44.64,74.27
33.384611,-0.9463,0.2158,0.8755,4.09,156.62,-10.56,2.04,47.83,74.42
33.384611,-1.0000,0.2568,0.9126,-0.43,152.10,-35.10,1.76,50.93,73.99
33.415233,-0.8291,0.1162,0.8696,-0.55,153.44,-50.17,0.78,54.03,72.77
33.415233,-0.6602,-0.0542,0.8359,8.06,162.11,-31.62,-0.21,57.20,71.47
33.475424,-0.8101,-0.0078,0.8408,15.62,170.47,-10.13,-0.44,60.55,70.88
33.475424,-1.0562,0.1450,0.8579,13.49,172.73,-12.08,-0.35,64.00,70.64
33.505779,-1.0947,0.2129,0.7578,10.62,177.06,-33.39,-0.99,67.50,69.68
33.505779,-0.9468,0.1333,0.5850,13.43,178.65,-46.69,-2.93,71.07,67.33
33.534487,-0.8486,0.0405,0.5376,17.33,173.58,-51.70,-6.28,74.53,63.47
33.534487,-0.8003,-0.0562,0.5195,17.27,173.46,-47.06,-11.45,77.85,57.77
33.595257,-0.7964,-0.1001,0.4717,12.88,171.75,-40.71,-19.51,81.00,49.24
33.595257,-0.8140,-0.1318,0.3726,11.35,170.59,-31.07,-33.44,83.81,34.93
33.624528,-0.9438,-0.0557,0.3105,12.39,167.24,-33.87,-60.79,85.79,7.19
33.624528,-0.9756,0.0000,0.3120,5.74,161.19,-47.49,-99.42,85.63,-31.76
33.655883,-0.8691,-0.0464,0.2227,4.33,161.68,-51.70,-124.06,83.51,-56.62
33.655883,-0.6997,-0.1343,0.1982,9.83,174.01,-36.38,-137.17,80.67,-70.02
33.715240,-0.8037,-0.0703,0.0542,17.58,180.66,-20.39,-146.07,77.57,-79.40
33.715240,-0.9438,0.0405,-0.0137,19.04,175.17,-26.37,-151.61,74.33,-85.51
33.744535,-0.9526,0.1030,-0.0967,16.48,162.41,-48.71,-154.19,71.03,-88.61
33.744535,-0.6938,-0.0269,-0.1885,15.93,150.33,-65.67,-154.75,67.71,-89.56
33.775214,-0.3579,-0.2793,-0.1655,20.75,149.72,-46.88,-154.97,64.52,-90.20
33.775214,-0.4258,-0.3462,-0.2373,29.85,161.19,-4.39,-156.25,61.53,-92.23
33.835258,-0.7295,-0.1450,-0.2456,33.39,161.80,6.84,-158.00,58.61,-95.04
33.835258,-0.8506,-0.0371,-0.3184,24.84,150.09,-14.28,-159.18,55.72,-97.16
33.865599,-0.6626,-0.1211,-0.3916,18.31,136.35,-39.37,-159.48,52.86,-98.06
33.865599,-0.4307,-0.3091,-0.4385,20.57,135.07,-33.81,-159.46,50.09,-98.53
33.895259,-0.3789,-0.3608,-0.4844,22.34,138.00,-12.33,-159.67,47.37,-99.43
33.895259,-0.5122,-0.2588,-0.5269,19.78,136.05,-0.31,-160.19,44.80,-100.77
33.956111,-0.6616,-0.1465,-0.6353,16.54,123.72,-15.81,-160.58,42.34,-101.88
33.956111,-0.6167,-0.1382,-0.6602,12.27,108.89,-47.73,-160.48,39.95,-102.19
33.984482,-0.2822,-0.2720,-0.6870,3.72,95.21,-68.36,-160.00,37.63,-101.69
33.984482,0.0498,-0.4355,-0.8149,1.10,87.46,-61.95,-159.57,35.45,-101.00
34.015243,0.1948,-0.4648,-0.9111,2.38,77.39,-44.37,-159.29,33.53,-100.58
34.015243,0.1812,-0.4321,-0.9849,4.03,59.45,-28.50,-159.14,32.00,-100.43
34.074563,0.0352,-0.3438,-0.9556,0.31,35.77,-19.35,-159.05,30.95,-100.37
34.074563,-0.0703,-0.3184,-0.9419,-4.52,12.82,-14.65,-159.02,30.40,-100.22
34.106209,-0.1387,-0.3076,-0.9146,-1.89,5.07,-4.27,-159.03,30.19,-100.11
34.106209,-0.2734,-0.2637,-0.8916,0.12,-4.03,2.75,-159.04,30.18,-100.12
34.165265,-0.3833,-0.2539,-0.8438,-0.37,-8.67,4.58,-159.07,30.36,-100.17
34.165265,-0.4268,-0.3008,-0.8140,1.34,-10.44,3.42,-159.05,30.57,-100.17
34.201744,-0.4297,-0.3477,-0.7822,1.77,-7.02,9.22,-159.05,30.78,-100.24
34.201744,-0.5063,-0.3091,-0.7969,-0.61,-6.65,10.50,-159.13,30.99,-100.43
34.225207,-0.5386,-0.2788,-0.8164,-2.75,-7.02,5.49,-159.22,31.18,-100.56
34.225207,-0.4619,-0.3286,-0.8530,-3.66,-9.46,0.92,-159.29,31.35,-100.55
34.285382,-0.4492,-0.3530,-0.8740,1.22,-6.77,3.42,-159.31,31.52,-100.55
34.285382,-0.5381,-0.3032,-0.8213,3.48,-4.94,3.54,-159.27,31.66,-100.60
34.314498,-0.5625,-0.2979,-0.7871,-1.40,-8.36,-1.28,-159.22,31.79,-100.58
34.314498,-0.5215,-0.3398,-0.8076,0.37,-8.48,-3.30,-159.18,31.93,-100.46
34.345232,-0.4761,-0.3076,-0.8242,-1.16,-10.25,-3.91,-159.11,32.09,-100.32
34.345232,-0.3667,-0.2988,-0.8647,0.43,-14.53,-7.57,-158.99,32.27,-100.09
34.406640,-0.2280,-0.3472,-0.8955,4.21,-20.20,-2.08,-158.81,32.55,-99.83
34.406640,-0.2368,-0.3120,-0.8701,6.84,-30.58,6.71,-158.59,33.04,-99.67
34.434459,-0.2769,-0.2554,-0.8477,3.42,-44.62,6.77,-158.40,33.79,-99.51
34.434459,-0.1865,-0.2896,-0.8564,-0.31,-61.28,2.44,-158.14,34.81,-99.10
34.465264,-0.0747,-0.4092,-0.8359,3.36,-72.88,10.31,-157.82,36.11,-98.58
34.465264,-0.0889,-0.4609,-0.7705,8.54,-79.10,28.26,-157.51,37.66,-98.27
34.525334,-0.2368,-0.3799,-0.6460,8.00,-86.98,43.88,-157.34,39.47,-98.31
34.525334,-0.3745,-0.2827,-0.6167,-9.03,-105.41,44.13,-157.39,41.60,-98.37
