t,ax,ay,az,gx,gy,gz,wx,wy,wz
0.006239,-0.0181,0.0586,1.0024,0.00,0.00,0.00,1.90,1.82,44.02
0.006239,-0.0186,0.0586,1.0015,0.00,0.00,0.00,1.90,1.82,44.02
0.075231,-0.0181,0.0581,1.0029,0.06,0.00,-0.06,1.90,1.82,44.02
0.075231,-0.0186,0.0586,1.0034,0.00,0.00,0.00,1.90,1.82,44.02
0.095731,-0.0186,0.0586,1.0029,0.00,0.00,0.00,1.90,1.82,44.02
0.095731,-0.0186,0.0591,1.0015,0.00,0.00,0.00,1.90,1.82,44.02
0.126067,-0.0181,0.0591,1.0020,0.00,0.00,0.00,1.90,1.82,44.02
0.126067,-0.0186,0.0586,1.0020,0.00,0.00,0.00,1.90,1.82,44.02
0.155002,-0.0186,0.0591,1.0024,0.00,0.00,-0.06,1.90,1.82,44.02
0.155002,-0.0181,0.0591,1.0015,0.00,0.00,-0.06,1.90,1.82,44.02
0.245459,-0.0181,0.0581,1.0024,0.00,0.00,-0.06,1.90,1.82,44.02
0.245459,-0.0181,0.0586,1.0029,0.00,0.00,0.00,1.90,1.82,44.02
0.246836,-0.0181,0.0581,1.0024,0.00,0.00,0.00,1.90,1.82,44.02
0.246836,-0.0181,0.0581,1.0029,0.00,0.00,0.00,1.90,1.82,44.02
0.275241,-0.0171,0.0591,1.0024,0.00,0.00,0.00,1.90,1.82,44.02
0.275241,-0.0176,0.0581,1.0020,0.00,0.00,-0.06,1.90,1.82,44.02
0.335175,-0.0181,0.0591,1.0024,0.00,0.00,0.00,1.90,1.82,44.02
0.335175,-0.0176,0.0586,1.0015,0.00,0.00,-0.06,1.90,1.82,44.02
0.367791,-0.0176,0.0591,1.0024,0.00,0.00,-0.06,1.90,1.82,44.02
0.367791,-0.0186,0.0591,1.0029,0.00,0.00,-0.06,1.90,1.82,44.02
0.395150,-0.0176,0.0591,1.0015,0.00,0.00,0.00,1.90,1.82,44.02
0.395150,-0.0181,0.0591,1.0034,0.00,0.00,-0.06,1.90,1.82,44.02
0.455218,-0.0176,0.0586,1.0020,0.00,0.00,-0.06,1.90,1.82,44.02
0.455218,-0.0171,0.0586,1.0020,0.00,0.00,-0.06,1.90,1.82,44.02
0.488371,-0.0186,0.0586,1.0020,0.00,0.00,0.00,1.90,1.82,44.02
0.488371,-0.0176,0.0586,1.0020,0.00,0.00,-0.06,1.90,1.82,44.02
0.516309,-0.0181,0.0581,1.0024,0.00,0.00,-0.06,1.90,1.82,44.02
0.516309,-0.0176,0.0581,1.0015,0.00,0.00,-0.06,1.90,1.82,44.02
0.575293,-0.0186,0.0581,1.0024,0.00,0.00,0.00,1.90,1.82,44.02
0.575293,-0.0186,0.0591,1.0024,0.00,0.00,0.00,1.90,1.82,44.02
0.605149,-0.0176,0.0586,1.0020,0.00,0.00,0.00,1.90,1.82,44.02
0.605149,-0.0181,0.0586,1.0024,0.00,0.00,-0.06,1.90,1.82,44.02
0.637308,-0.0186,0.0581,1.0024,0.00,0.00,-0.06,1.90,1.82,44.02
0.637308,-0.0181,0.0591,1.0020,0.00,0.00,0.00,1.90,1.82,44.02
0.695227,-0.0190,0.0586,1.0029,0.00,-0.06,-0.06,1.90,1.82,44.02
0.695227,-0.0190,0.0586,1.0024,0.00,0.00,-0.12,1.90,1.82,44.02
0.725283,-0.0186,0.0581,1.0024,0.00,0.00,-0.06,1.90,1.82,44.02
0.725283,-0.0176,0.0586,1.0039,0.00,0.00,0.00,1.90,1.82,44.02
0.755284,-0.0186,0.0591,1.0029,0.00,0.00,-0.12,1.90,1.82,44.02
0.755284,-0.0181,0.0586,1.0034,0.00,0.00,-0.06,1.90,1.82,44.02
0.815238,-0.0181,0.0586,1.0020,0.00,0.00,-0.06,1.90,1.82,44.02
0.815238,-0.0176,0.0591,1.0020,0.00,0.00,0.00,1.90,1.82,44.02
0.845230,-0.0181,0.0586,1.0020,0.00,-0.06,-0.06,1.90,1.82,44.02
0.845230,-0.0181,0.0581,1.0024,0.00,0.00,-0.06,1.90,1.82,44.02
0.875195,-0.0176,0.0586,1.0020,0.00,0.00,-0.06,1.90,1.82,44.02
0.875195,-0.0190,0.0581,1.0015,0.00,0.00,0.00,1.90,1.82,44.02
0.935257,-0.0186,0.0596,1.0020,0.00,0.00,0.00,1.90,1.82,44.02
0.935257,-0.0190,0.0581,1.0024,0.00,0.00,0.00,1.90,1.82,44.02
0.965240,-0.0181,0.0586,1.0034,0.00,0.00,0.00,1.90,1.82,44.02
0.965240,-0.0176,0.0591,1.0029,0.00,0.00,-0.06,1.90,1.82,44.02
0.995186,-0.0176,0.0586,1.0020,0.00,0.00,0.00,1.90,1.82,44.02
0.995186,-0.0190,0.0586,1.0029,0.00,0.00,0.00,1.90,1.82,44.02
1.055388,-0.0176,0.0586,1.0015,0.00,0.00,-0.12,1.90,1.82,44.02
1.055388,-0.0181,0.0596,1.0029,0.00,0.00,-0.06,1.90,1.82,44.02
1.085253,-0.0181,0.0591,1.0029,0.00,0.00,-0.06,1.90,1.82,44.02
1.085253,-0.0181,0.0586,1.0015,0.00,0.00,-0.06,1.90,1.82,44.02
1.115235,-0.0176,0.0591,1.0024,0.00,0.00,0.00,1.90,1.82,44.02
1.115235,-0.0176,0.0586,1.0015,0.00,0.00,-0.06,1.90,1.82,44.02
1.175128,-0.0186,0.0586,1.0024,0.00,0.00,0.00,1.90,1.82,44.02
1.175128,-0.0176,0.0576,1.0029,0.00,0.00,-0.06,1.90,1.82,44.02
1.205148,-0.0181,0.0586,1.0024,0.00,0.00,-0.06,1.90,1.82,44.02
1.205148,-0.0171,0.0576,1.0024,0.00,0.00,-0.06,1.90,1.82,44.02
1.236288,-0.0181,0.0586,1.0020,0.06,0.00,-0.06,1.90,1.82,44.02
1.236288,-0.0181,0.0581,1.0020,0.00,0.00,-0.06,1.90,1.82,44.02
1.295083,-0.0176,0.0586,1.0029,0.00,0.00,0.00,1.90,1.82,44.02
1.295083,-0.0176,0.0586,1.0020,0.00,0.00,-0.06,1.90,1.82,44.02
1.324992,-0.0181,0.0591,1.0024,0.00,0.00,-0.12,1.90,1.82,44.02
1.324992,-0.0171,0.0581,1.0029,0.00,0.00,-0.06,1.90,1.82,44.02
1.385011,-0.0181,0.0581,1.0015,0.00,0.00,-0.06,1.90,1.82,44.02
1.385011,-0.0181,0.0586,1.0024,0.00,0.00,-0.06,1.90,1.82,44.02
1.416590,-0.0181,0.0581,1.0024,0.00,0.00,0.00,1.90,1.82,44.02
1.416590,-0.0186,0.0586,1.0029,0.00,0.00,-0.06,1.90,1.82,44.02
1.445034,-0.0181,0.0586,1.0024,0.00,0.00,-0.06,1.90,1.82,44.02
1.445034,-0.0186,0.0586,1.0010,0.00,0.00,0.00,1.90,1.82,44.02
1.504964,-0.0176,0.0591,1.0024,0.00,0.00,-0.06,1.90,1.82,44.02
1.504964,-0.0181,0.0581,1.0015,0.00,0.00,-0.12,1.90,1.82,44.02
1.541425,-0.0186,0.0586,1.0020,0.00,0.00,-0.06,1.90,1.82,44.02
1.541425,-0.0176,0.0586,1.0024,0.00,0.00,-0.06,1.90,1.82,44.02
1.565026,-0.0181,0.0581,1.0029,0.00,0.00,0.00,1.90,1.82,44.02
1.565026,-0.0181,0.0581,1.0020,0.00,0.00,0.00,1.90,1.82,44.02
1.625115,-0.0186,0.0581,1.0029,0.00,0.00,0.00,1.90,1.82,44.02
1.625115,-0.0181,0.0586,1.0020,0.00,0.00,-0.06,1.90,1.82,44.02
1.654981,-0.0181,0.0586,1.0024,0.00,0.00,0.00,1.90,1.82,44.02
1.654981,-0.0181,0.0576,1.0010,0.00,0.00,0.00,1.90,1.82,44.02
1.684991,-0.0176,0.0591,1.0024,0.00,0.00,-0.12,1.90,1.82,44.02
1.684991,-0.0181,0.0586,1.0015,0.00,0.00,-0.06,1.90,1.82,44.02
1.745104,-0.0181,0.0586,1.0020,0.06,0.00,0.00,1.90,1.82,44.02
1.745104,-0.0181,0.0586,1.0020,0.00,0.00,0.00,1.90,1.82,44.02
1.775073,-0.0181,0.0586,1.0015,0.00,0.00,-0.06,1.90,1.82,44.02
1.775073,-0.0176,0.0586,1.0020,0.00,0.00,0.00,1.90,1.82,44.02
1.805337,-0.0190,0.0581,1.0029,0.00,0.00,0.00,1.90,1.82,44.02
1.805337,-0.0186,0.0591,1.0024,0.00,-0.06,-0.06,1.90,1.82,44.02
1.865160,-0.0186,0.0586,1.0029,0.00,0.00,0.00,1.90,1.82,44.02
1.865160,-0.0181,0.0581,1.0029,0.00,0.00,-0.06,1.90,1.82,44.02
1.895271,-0.0181,0.0581,1.0015,0.00,0.00,-0.06,1.90,1.82,44.02
1.895271,-0.0186,0.0581,1.0024,0.00,0.00,0.00,1.90,1.82,44.02
1.925033,-0.0186,0.0581,1.0029,0.00,0.00,-0.06,1.90,1.82,44.02
1.925033,-0.0176,0.0576,1.0020,0.00,0.00,-0.12,1.90,1.82,44.02
1.985003,-0.0181,0.0581,1.0024,0.00,0.00,-0.06,1.90,1.82,44.02
1.985003,-0.0176,0.0586,1.0029,0.00,0.00,-0.06,1.90,1.82,44.02
2.014955,-0.0186,0.0576,1.0020,0.06,0.00,0.00,1.90,1.82,44.02
2.014955,-0.0190,0.0576,1.0020,0.06,0.00,0.00,1.90,1.82,44.02
2.045236,-0.0181,0.0576,1.0020,0.00,0.00,-0.06,1.90,1.82,44.02
2.045236,-0.0176,0.0586,1.0010,0.00,0.00,0.00,1.90,1.82,44.02
2.105021,-0.0181,0.0581,1.0020,0.00,0.00,-0.12,1.90,1.82,44.02
2.105021,-0.0181,0.0586,1.0015,0.00,-0.06,-0.06,1.90,1.82,44.02
2.136417,-0.0190,0.0581,1.0015,0.00,0.00,-0.06,1.90,1.82,44.02
2.136417,-0.0186,0.0576,1.0024,0.00,0.00,-0.06,1.90,1.82,44.02
2.165103,-0.0186,0.0581,1.0020,0.00,0.00,-0.06,1.90,1.82,44.02
2.165103,-0.0186,0.0586,1.0024,0.00,0.00,0.00,1.90,1.82,44.02
2.225077,-0.0181,0.0586,1.0024,0.00,0.00,-0.12,1.90,1.82,44.02
2.225077,-0.0181,0.0586,1.0020,0.00,0.00,0.00,1.90,1.82,44.02
2.256149,-0.0186,0.0586,1.0020,0.00,0.00,-0.06,1.90,1.82,44.02
2.256149,-0.0181,0.0581,1.0020,0.00,0.00,0.00,1.90,1.82,44.02
2.285266,-0.0181,0.0581,1.0029,0.00,0.00,0.00,1.90,1.82,44.02
2.285266,-0.0181,0.0581,1.0029,0.00,0.00,0.00,1.90,1.82,44.02
2.345059,-0.0181,0.0581,1.0024,0.00,0.00,-0.12,1.90,1.82,44.02
2.345059,-0.0181,0.0576,1.0029,0.00,0.00,0.00,1.90,1.82,44.02
2.375148,-0.0186,0.0586,1.0034,0.00,0.00,-0.12,1.90,1.82,44.02
2.375148,-0.0186,0.0581,1.0029,0.00,0.00,-0.06,1.90,1.82,44.02
2.405145,-0.0181,0.0576,1.0020,0.00,0.00,0.00,1.89,1.82,44.02
2.405145,-0.0186,0.0586,1.0015,0.00,0.00,0.00,1.89,1.82,44.02
2.465124,-0.0186,0.0591,1.0024,0.00,0.00,-0.06,1.89,1.82,44.02
2.465124,-0.0181,0.0581,1.0015,0.00,0.00,0.00,1.89,1.82,44.02
2.494996,-0.0181,0.0586,1.0020,0.00,0.00,-0.06,1.89,1.82,44.02
2.494996,-0.0186,0.0586,1.0029,0.00,0.00,-0.06,1.89,1.82,44.02
2.526221,-0.0186,0.0581,1.0020,0.00,0.00,-0.06,1.89,1.82,44.02
2.526221,-0.0186,0.0576,1.0020,0.00,0.00,-0.06,1.89,1.82,44.02
2.585196,-0.0181,0.0581,1.0024,0.00,0.06,0.00,1.89,1.82,44.02
2.585196,-0.0176,0.0581,1.0024,0.00,0.00,-0.06,1.89,1.82,44.02
2.614991,-0.0186,0.0591,1.0015,0.00,0.00,-0.06,1.89,1.82,44.02
2.614991,-0.0186,0.0586,1.0015,0.00,0.00,-0.06,1.89,1.82,44.02
2.645087,-0.0186,0.0586,1.0010,0.00,0.00,-0.12,1.89,1.82,44.02
2.645087,-0.0181,0.0581,1.0020,0.00,0.00,0.00,1.89,1.82,44.02
2.705078,-0.0176,0.0581,1.0029,0.00,0.00,-0.06,1.89,1.82,44.02
2.705078,-0.0176,0.0581,1.0005,0.00,0.00,-0.12,1.89,1.82,44.02
2.737513,-0.0181,0.0581,1.0024,0.00,0.00,0.00,1.89,1.82,44.02
2.737513,-0.0195,0.0591,1.0020,0.00,0.00,-0.06,1.89,1.82,44.02
2.795283,-0.0190,0.0581,1.0024,0.00,0.00,-0.06,1.89,1.82,44.02
2.795283,-0.0181,0.0581,1.0015,0.00,0.00,-0.06,1.89,1.82,44.02
2.825165,-0.0176,0.0591,1.0015,0.00,0.00,-0.06,1.89,1.82,44.02
2.825165,-0.0181,0.0581,1.0010,0.00,0.00,0.00,1.89,1.82,44.02
2.855214,-0.0181,0.0586,1.0024,0.00,0.00,-0.06,1.89,1.82,44.02
2.855214,-0.0186,0.0576,1.0034,0.00,0.00,0.00,1.89,1.82,44.02
2.915138,-0.0181,0.0586,1.0029,0.00,0.00,0.00,1.89,1.82,44.02
2.915138,-0.0186,0.0576,1.0029,0.06,0.00,0.00,1.89,1.82,44.02
2.945031,-0.0181,0.0581,1.0020,0.00,0.00,0.00,1.89,1.82,44.02
2.945031,-0.0181,0.0581,1.0024,0.00,0.00,0.00,1.89,1.82,44.02
2.975028,-0.0186,0.0586,1.0029,0.00,0.00,-0.06,1.89,1.82,44.02
2.975028,-0.0190,0.0591,1.0020,0.00,0.00,0.00,1.89,1.82,44.02
3.035178,-0.0181,0.0586,1.0024,0.00,0.00,-0.06,1.89,1.82,44.02
3.035178,-0.0181,0.0591,1.0015,0.00,0.00,-0.06,1.89,1.82,44.02
3.065196,-0.0166,0.0591,1.0020,0.00,0.00,-0.12,1.89,1.82,44.02
3.065196,-0.0181,0.0576,1.0015,0.00,0.00,0.00,1.89,1.82,44.02
3.095065,-0.0181,0.0586,1.0020,0.00,0.00,0.00,1.89,1.82,44.02
3.095065,-0.0181,0.0586,1.0020,0.00,0.06,0.00,1.89,1.82,44.02
3.154981,-0.0181,0.0586,1.0020,0.00,0.00,-0.06,1.89,1.82,44.02
3.154981,-0.0186,0.0576,1.0034,0.00,0.00,-0.12,1.89,1.82,44.02
3.185084,-0.0186,0.0581,1.0020,0.00,0.00,-0.12,1.89,1.82,44.02
3.185084,-0.0171,0.0586,1.0024,0.00,0.00,0.00,1.89,1.82,44.02
3.215023,-0.0186,0.0591,1.0020,0.00,0.00,0.00,1.89,1.82,44.02
3.215023,-0.0181,0.0581,1.0015,0.00,0.00,0.00,1.89,1.82,44.02
3.305671,-0.0181,0.0586,1.0020,0.00,0.00,-0.06,1.89,1.82,44.02
3.305671,-0.0176,0.0586,1.0020,0.00,0.00,0.00,1.89,1.82,44.02
3.307828,-0.0186,0.0586,1.0015,0.00,0.00,0.00,1.89,1.82,44.02
3.307828,-0.0181,0.0581,1.0010,0.00,0.00,-0.06,1.89,1.82,44.02
3.334763,-0.0176,0.0586,1.0015,0.00,0.00,-0.06,1.89,1.82,44.02
3.334763,-0.0190,0.0601,1.0034,0.12,0.00,-0.06,1.89,1.82,44.02
3.395006,-0.0181,0.0566,1.0015,0.00,0.06,-0.06,1.89,1.82,44.02
3.395006,-0.0171,0.0601,1.0005,-0.06,0.00,0.00,1.89,1.82,44.02
3.426505,-0.0190,0.0581,1.0010,0.06,0.00,-0.06,1.89,1.82,44.02
3.426505,-0.0186,0.0581,1.0020,0.00,0.00,0.00,1.89,1.82,44.02
3.455047,-0.0181,0.0581,1.0020,-0.06,0.00,0.00,1.89,1.82,44.02
3.455047,-0.0190,0.0581,1.0015,0.00,0.00,-0.06,1.89,1.82,44.02
3.515013,-0.0186,0.0581,1.0020,0.00,0.00,-0.12,1.89,1.82,44.02
3.515013,-0.0181,0.0581,1.0020,0.06,0.00,0.00,1.89,1.82,44.02
3.544988,-0.0186,0.0591,1.0024,0.00,0.00,-0.06,1.89,1.82,44.02
3.544988,-0.0181,0.0596,1.0015,0.00,0.00,0.00,1.89,1.82,44.02
3.581972,-0.0181,0.0581,1.0015,0.00,0.00,0.00,1.89,1.83,44.02
3.581972,-0.0176,0.0591,1.0020,0.00,0.00,-0.06,1.89,1.82,44.02
3.635120,-0.0181,0.0591,1.0015,0.00,0.00,0.00,1.90,1.82,44.02
3.635120,-0.0176,0.0591,1.0010,0.00,0.00,-0.06,1.90,1.82,44.02
3.665054,-0.0186,0.0581,1.0015,0.06,0.00,0.00,1.90,1.82,44.02
3.665054,-0.0181,0.0586,1.0024,0.00,0.00,0.00,1.90,1.82,44.02
3.695088,-0.0171,0.0586,1.0024,0.00,0.00,0.00,1.90,1.82,44.02
3.695088,-0.0190,0.0591,1.0024,0.00,0.00,-0.06,1.90,1.82,44.02
3.765621,-0.0181,0.0586,1.0020,0.00,0.00,0.00,1.90,1.82,44.02
3.765621,-0.0186,0.0586,1.0015,0.00,0.00,-0.12,1.90,1.82,44.02
3.785079,-0.0186,0.0581,1.0020,0.00,0.00,-0.06,1.90,1.82,44.02
3.785079,-0.0186,0.0581,1.0015,0.00,0.00,0.00,1.90,1.82,44.02
3.815172,-0.0176,0.0581,1.0015,0.00,0.00,-0.06,1.90,1.82,44.02
3.815172,-0.0171,0.0576,1.0020,0.00,0.00,-0.06,1.90,1.82,44.02
3.875098,-0.0181,0.0586,1.0015,0.06,0.00,-0.06,1.90,1.82,44.02
3.875098,-0.0181,0.0581,1.0020,0.00,0.00,0.00,1.90,1.82,44.02
3.905118,-0.0181,0.0581,1.0010,0.00,0.00,-0.12,1.90,1.82,44.02
3.905118,-0.0186,0.0586,1.0015,0.00,0.00,-0.06,1.90,1.82,44.02
3.935056,-0.0181,0.0581,1.0010,0.00,0.00,0.00,1.90,1.82,44.02
3.935056,-0.0186,0.0586,1.0010,0.00,0.00,-0.06,1.90,1.82,44.02
3.995067,-0.0186,0.0586,1.0010,0.06,0.00,-0.06,1.90,1.82,44.02
3.995067,-0.0186,0.0591,1.0010,0.12,0.00,-0.06,1.90,1.82,44.02
4.025034,-0.0181,0.0591,1.0010,0.00,0.00,-0.12,1.90,1.82,44.02
4.025034,-0.0190,0.0601,1.0000,0.00,0.00,-0.12,1.90,1.82,44.02
4.085150,-0.0186,0.0596,1.0020,0.00,0.00,-0.12,1.90,1.82,44.02
4.085150,-0.0181,0.0586,1.0020,0.00,0.00,-0.06,1.90,1.83,44.02
4.115104,-0.0181,0.0586,1.0029,0.00,0.00,-0.06,1.90,1.83,44.02
4.115104,-0.0190,0.0581,1.0020,0.00,0.00,-0.06,1.90,1.83,44.02
4.145016,-0.0186,0.0581,1.0020,0.00,0.00,0.00,1.90,1.83,44.02
4.145016,-0.0171,0.0586,1.0029,0.00,0.00,-0.06,1.90,1.83,44.02
4.205078,-0.0171,0.0586,1.0020,0.00,0.00,-0.06,1.90,1.83,44.02
4.205078,-0.0181,0.0586,1.0015,0.00,0.00,0.00,1.90,1.83,44.02
4.235025,-0.0176,0.0591,1.0015,0.00,0.00,0.00,1.90,1.83,44.02
4.235025,-0.0181,0.0591,1.0020,0.00,0.00,-0.06,1.90,1.83,44.02
4.264982,-0.0176,0.0591,1.0020,0.00,0.00,-0.06,1.90,1.83,44.02
4.264982,-0.0176,0.0581,1.0015,0.00,0.00,0.00,1.90,1.82,44.02
4.325185,-0.0181,0.0576,1.0015,0.00,0.00,-0.06,1.90,1.82,44.02
4.325185,-0.0176,0.0581,1.0015,0.00,0.00,0.00,1.90,1.82,44.02
4.355044,-0.0176,0.0586,1.0010,0.00,0.00,-0.06,1.90,1.82,44.02
4.355044,-0.0181,0.0586,1.0005,0.00,0.00,-0.06,1.90,1.82,44.02
4.385011,-0.0190,0.0581,1.0020,0.00,0.00,-0.06,1.90,1.82,44.02
4.385011,-0.0186,0.0586,1.0024,0.00,0.00,-0.06,1.90,1.82,44.02
4.445544,-0.0181,0.0586,1.0020,0.00,0.00,-0.06,1.90,1.82,44.02
4.445544,-0.0186,0.0581,1.0015,0.06,0.00,-0.06,1.90,1.82,44.02
4.475040,-0.0181,0.0591,1.0015,0.00,0.00,-0.06,1.90,1.82,44.02
4.475040,-0.0181,0.0586,1.0015,0.00,0.00,-0.12,1.90,1.82,44.02
4.505104,-0.0200,0.0591,1.0024,0.00,0.00,0.00,1.90,1.82,44.02
4.505104,-0.0190,0.0591,1.0015,0.06,0.00,0.00,1.90,1.82,44.02
4.565170,-0.0190,0.0586,1.0020,0.00,0.00,-0.06,1.90,1.82,44.02
4.565170,-0.0181,0.0586,1.0015,-0.06,0.00,0.00,1.90,1.83,44.02
4.603520,-0.0181,0.0591,1.0010,0.00,0.00,-0.06,1.90,1.83,44.02
4.603520,-0.0190,0.0581,1.0015,0.00,0.00,-0.06,1.90,1.83,44.02
4.625119,-0.0181,0.0586,1.0010,0.00,0.00,0.00,1.90,1.83,44.02
4.625119,-0.0181,0.0586,1.0024,0.00,0.00,-0.06,1.90,1.83,44.02
4.685138,-0.0181,0.0586,1.0015,0.00,0.00,-0.12,1.90,1.83,44.02
4.685138,-0.0181,0.0586,1.0015,0.00,0.00,-0.06,1.90,1.83,44.02
4.715130,-0.0176,0.0586,1.0024,0.00,0.00,-0.06,1.90,1.83,44.02
4.715130,-0.0176,0.0596,1.0015,0.00,0.00,-0.06,1.90,1.83,44.02
4.745208,-0.0181,0.0591,1.0005,0.00,0.00,0.00,1.90,1.83,44.02
4.745208,-0.0186,0.0581,1.0020,0.00,0.00,0.00,1.90,1.83,44.02
4.806241,-0.0186,0.0591,1.0015,0.00,0.00,-0.06,1.90,1.83,44.02
4.806241,-0.0181,0.0581,1.0015,0.00,0.00,-0.06,1.90,1.83,44.02
4.847832,-0.0176,0.0581,1.0024,0.00,0.00,0.00,1.90,1.83,44.02
4.847832,-0.0176,0.0581,1.0029,0.00,0.00,0.00,1.90,1.83,44.02
4.866358,-0.0181,0.0581,1.0015,0.00,0.00,0.00,1.90,1.82,44.02
4.866358,-0.0190,0.0581,1.0024,0.00,0.00,-0.06,1.90,1.82,44.02
4.927802,-0.0186,0.0581,1.0015,0.00,0.00,-0.06,1.90,1.82,44.02
4.927802,-0.0186,0.0586,1.0010,0.00,0.00,-0.06,1.90,1.83,44.02
4.957495,-0.0190,0.0586,1.0015,0.00,0.00,-0.18,1.90,1.83,44.02
4.957495,-0.0190,0.0581,1.0015,0.00,0.00,-0.06,1.90,1.83,44.02
4.985420,-0.0176,0.0596,1.0010,0.00,0.00,-0.06,1.90,1.83,44.02
4.985420,-0.0181,0.0581,1.0010,0.00,0.00,-0.12,1.90,1.83,44.02
5.045864,-0.0181,0.0586,1.0015,0.00,0.00,-0.06,1.90,1.83,44.02
5.045864,-0.0186,0.0581,1.0020,0.00,0.00,-0.06,1.90,1.83,44.02
5.074815,-0.0186,0.0581,1.0020,0.00,0.00,0.00,1.90,1.83,44.02
5.074815,-0.0181,0.0581,1.0010,-0.06,0.00,0.00,1.90,1.83,44.02
5.105864,-0.0181,0.0581,1.0020,0.00,0.00,0.00,1.90,1.83,44.02
5.105864,-0.0176,0.0586,1.0010,0.00,0.00,-0.06,1.90,1.83,44.02
5.165132,-0.0176,0.0581,1.0020,0.00,0.00,-0.06,1.90,1.83,44.02
5.165132,-0.0171,0.0581,1.0020,0.00,0.00,-0.06,1.90,1.83,44.02
5.194847,-0.0176,0.0586,1.0020,0.00,0.00,-0.06,1.90,1.83,44.02
5.194847,-0.0176,0.0591,1.0029,0.00,0.00,-0.06,1.90,1.83,44.02
5.225136,-0.0171,0.0591,1.0015,0.00,0.00,-0.06,1.90,1.83,44.02
5.225136,-0.0181,0.0586,1.0015,0.00,0.00,-0.06,1.90,1.83,44.02
5.285148,-0.0400,0.1050,0.9824,-4.82,-2.99,-0.37,1.88,1.82,44.02
5.285148,0.0054,0.0356,1.0200,-31.86,-12.88,-3.66,1.42,1.58,43.97
5.315980,-0.0034,0.0239,0.9819,-23.38,-7.81,-2.99,0.86,1.36,43.89
5.315980,0.0239,-0.0005,0.9980,8.67,16.11,4.15,0.70,1.51,43.88
5.345165,-0.0376,0.0249,1.0435,10.31,5.25,2.87,0.95,1.71,44.01
5.345165,-0.0264,0.0430,1.0151,9.16,0.37,-1.59,1.13,1.75,44.01
5.405194,-0.0098,0.0552,1.0010,4.46,0.79,-5.31,1.27,1.76,43.93
5.405194,-0.0371,0.0693,0.9966,4.94,1.16,4.64,1.33,1.79,43.87
5.435894,-0.0278,0.0430,1.0059,-2.87,2.69,0.92,1.30,1.83,43.88
5.435894,-0.0171,0.0601,1.0103,-2.26,-0.49,1.71,1.27,1.84,43.91
5.494826,-0.0156,0.0493,1.0049,-7.57,0.00,3.05,1.16,1.83,43.96
5.494826,-0.0132,0.0293,0.9976,-5.19,0.85,0.55,1.02,1.85,44.01
5.525028,-0.0137,0.0449,0.9976,-2.38,2.20,0.79,0.96,1.87,44.02
5.525028,-0.0156,0.0547,1.0044,-4.09,3.72,2.26,0.90,1.93,44.06
5.554935,-0.0254,0.0552,1.0137,-8.67,5.37,4.94,0.77,2.02,44.13
5.554935,-0.0303,0.0298,1.0059,-8.79,3.91,2.44,0.59,2.11,44.21
5.614868,-0.0269,0.0288,1.0190,-8.79,2.50,1.83,0.41,2.17,44.25
5.614868,-0.0332,0.0225,1.0225,-11.84,-0.12,0.61,0.21,2.20,44.29
5.652321,-0.0190,0.0303,1.0259,-17.82,-1.10,-1.53,-0.08,2.18,44.27
5.652321,-0.0117,0.0073,1.0493,-25.63,0.18,-4.58,-0.52,2.17,44.22
5.674706,-0.0220,-0.0557,1.0801,-40.34,4.52,-19.17,-1.18,2.21,44.00
5.674706,-0.0938,-0.0024,1.1987,-43.21,3.54,-24.90,-2.07,2.30,43.52
5.735158,-0.0459,0.0122,1.3071,-28.99,5.74,-15.14,-2.77,2.38,43.13
5.735158,-0.0376,0.0791,1.3633,-26.86,4.88,-15.08,-3.34,2.49,42.84
5.765104,-0.0454,0.0986,1.4229,-16.05,2.62,-20.20,-3.78,2.55,42.48
5.765104,-0.0728,0.1001,1.4355,-5.74,1.28,-19.10,-4.00,2.57,42.07
5.794884,-0.0981,0.0391,1.4385,7.63,-0.12,-11.29,-3.99,2.57,41.76
5.794884,-0.1167,-0.0454,1.3901,14.65,0.43,-5.74,-3.75,2.56,41.61
5.854872,-0.1177,-0.0620,1.3525,8.79,3.60,-7.26,-3.52,2.59,41.49
5.854872,-0.1182,-0.0342,1.3496,1.46,7.08,-9.52,-3.42,2.70,41.31
5.885123,-0.1206,-0.0415,1.3428,-6.71,6.90,-7.57,-3.47,2.83,41.14
5.885123,-0.1016,-0.0718,1.3213,-19.59,8.42,-8.61,-3.76,2.98,40.97
5.914989,-0.0903,-0.0615,1.2788,-31.01,7.93,-8.00,-4.26,3.15,40.80
5.914989,-0.0742,-0.1006,1.2749,-38.57,2.32,-7.69,-5.03,3.24,40.64
5.974840,-0.0605,-0.1460,1.2368,-18.07,2.99,-9.22,-5.59,3.27,40.48
5.974840,-0.0537,-0.1216,1.1611,-14.71,5.98,-15.87,-5.89,3.35,40.21
6.005004,-0.0322,-0.1396,1.1855,-15.01,10.38,-14.71,-6.25,3.48,39.89
6.005004,-0.0215,-0.0996,1.1846,0.37,14.77,-15.26,-6.39,3.71,39.57
6.034797,-0.0347,-0.0396,1.1914,9.03,15.99,-14.22,-6.30,4.00,39.24
6.034797,-0.0444,-0.0474,1.2061,13.67,15.99,-12.63,-6.09,4.30,38.95
6.094651,-0.0610,-0.0684,1.1709,19.53,20.02,-13.24,-5.76,4.63,38.67
6.094651,-0.0786,-0.0830,1.1074,21.79,29.11,-15.75,-5.37,5.10,38.35
6.125109,-0.0376,-0.1040,1.0425,22.22,41.20,-24.90,-4.96,5.78,37.90
6.125109,-0.0293,-0.0820,1.0342,21.42,41.99,-25.63,-4.58,6.61,37.31
6.154719,-0.0522,-0.0513,1.0264,23.74,26.98,-11.78,-4.17,7.29,36.91
6.154719,-0.0659,-0.0757,0.9717,21.06,16.91,-6.35,-3.74,7.69,36.73
6.214668,-0.0957,-0.0669,0.9468,16.97,17.33,-8.00,-3.38,8.02,36.58
6.214668,-0.1504,-0.0557,0.9336,14.83,21.79,-4.64,-3.09,8.42,36.43
6.245077,-0.1597,-0.0854,0.8921,15.56,24.54,3.60,-2.78,8.88,36.41
6.245077,-0.1802,-0.0820,0.8833,14.59,29.05,8.85,-2.47,9.42,36.54
6.274853,-0.1968,-0.0532,0.9033,16.78,34.00,17.21,-2.12,10.06,36.79
6.274853,-0.1768,-0.0444,0.8965,22.77,35.03,25.09,-1.65,10.76,37.23
6.334806,-0.1689,-0.0591,0.8413,26.43,34.18,30.15,-1.05,11.45,37.80
6.334806,-0.1499,-0.1074,0.7769,24.96,35.03,30.94,-0.41,12.13,38.44
6.365051,-0.1108,-0.1226,0.7290,20.20,34.24,30.09,0.17,12.82,39.08
6.365051,-0.1025,-0.1211,0.6958,16.91,30.09,31.80,0.68,13.44,39.73
6.394753,-0.1045,-0.0874,0.6953,14.95,24.90,37.48,1.15,13.96,40.47
6.394753,-0.0776,-0.0566,0.6748,15.14,20.14,39.49,1.65,14.37,41.30
6.454794,-0.0605,-0.0225,0.6543,14.10,15.38,36.62,2.14,14.68,42.11
6.454794,-0.0537,-0.0005,0.6357,12.70,8.85,32.10,2.58,14.88,42.82
6.485016,-0.0967,0.0200,0.6436,12.27,1.89,29.11,2.97,14.93,43.46
6.485016,-0.1157,0.0376,0.6470,13.18,-0.73,26.06,3.38,14.89,44.03
6.515067,-0.1348,0.0605,0.6611,12.51,0.73,21.36,3.75,14.84,44.51
6.515067,-0.1338,0.0801,0.6621,12.63,1.34,18.07,4.10,14.83,44.92
6.574797,-0.1318,0.1240,0.6533,14.34,0.00,13.49,4.44,14.82,45.25
6.574797,-0.1328,0.1543,0.6245,16.48,-3.05,6.96,4.80,14.77,45.46
6.605002,-0.1431,0.1558,0.6089,17.03,-8.67,1.22,5.16,14.64,45.52
6.605002,-0.1841,0.1304,0.5903,15.01,-16.78,-1.10,5.48,14.38,45.48
6.634688,-0.2393,0.1196,0.5791,7.26,-19.59,-5.13,5.68,14.01,45.38
6.634688,-0.2905,0.1406,0.6045,-3.36,-14.65,-6.41,5.68,13.68,45.20
6.694841,-0.3320,0.1514,0.6455,-11.54,-7.87,-2.01,5.49,13.47,45.09
6.694841,-0.3062,0.1543,0.6797,-18.13,2.20,-0.31,5.19,13.42,45.07
6.725119,-0.2607,0.1650,0.7212,-22.95,9.03,0.43,4.77,13.55,45.08
6.725119,-0.2207,0.1694,0.7559,-23.44,8.79,2.26,4.31,13.73,45.14
6.756417,-0.1772,0.1597,0.7505,-23.44,5.80,-0.85,3.85,13.88,45.18
6.756417,-0.1655,0.1548,0.7676,-24.48,0.79,-5.74,3.35,13.95,45.11
6.815996,-0.1616,0.1426,0.7959,-22.95,-6.29,-8.48,2.84,13.90,44.96
6.815996,-0.1724,0.1333,0.8022,-18.43,-13.31,-9.52,2.38,13.71,44.75
6.845002,-0.1611,0.0967,0.7817,-15.32,-18.31,-9.89,2.01,13.40,44.53
6.845002,-0.1426,0.0806,0.7676,-18.13,-22.40,-12.02,1.61,13.01,44.29
6.905172,-0.1567,0.0537,0.7568,-23.07,-25.82,-14.59,1.14,12.53,43.99
6.905172,-0.1914,0.0044,0.7734,-28.75,-24.48,-15.08,0.55,12.04,43.67
6.934814,-0.1924,-0.0449,0.7959,-36.01,-17.46,-15.56,-0.15,11.62,43.35
6.934814,-0.1772,-0.0244,0.8535,-44.19,-8.30,-18.55,-1.04,11.38,42.99
6.965192,-0.1597,0.0151,0.9272,-44.19,-2.99,-17.64,-2.00,11.27,42.62
6.965192,-0.1035,0.0146,0.9404,-37.11,0.79,-16.91,-2.87,11.24,42.28
7.025180,-0.0474,-0.0205,0.9136,-29.91,1.77,-17.82,-3.60,11.27,41.92
7.025180,-0.0093,-0.0566,0.8906,-26.61,-2.93,-18.98,-4.23,11.24,41.55
7.054783,0.0059,-0.0669,0.9131,-26.18,-8.79,-23.99,-4.83,11.10,41.13
7.054783,-0.0298,-0.0308,0.9580,-22.40,-15.81,-28.75,-5.42,10.82,40.60
7.085281,-0.1040,0.0098,0.9692,-12.02,-19.90,-27.04,-5.86,10.41,40.05
7.085281,-0.1304,-0.0332,0.8696,-8.67,-16.66,-21.00,-6.11,10.00,39.60
7.175114,-0.0977,-0.0664,0.7705,-15.62,-9.09,-11.17,-6.39,9.72,39.28
7.175114,-0.0942,-0.1133,0.7275,-20.94,-9.09,4.21,-6.77,9.54,39.21
7.177655,-0.1304,-0.2148,0.7231,-30.82,-17.94,14.77,-7.24,9.28,39.46
7.177655,-0.1738,-0.2158,0.7954,-46.20,-15.44,12.94,-7.99,8.95,39.80
7.205217,-0.2271,-0.0894,0.9565,-41.93,-5.13,-2.08,-8.88,8.77,39.93
7.205217,-0.2632,-0.0449,1.0552,-29.48,-0.31,-5.68,-9.61,8.71,39.82
7.265191,-0.2534,-0.1567,1.0767,-17.33,-3.17,9.52,-10.05,8.69,39.85
7.265191,-0.2012,-0.2544,1.0728,-14.71,-6.96,22.46,-10.32,8.63,40.23
7.294894,-0.1362,-0.3032,1.0625,-13.55,-7.57,13.79,-10.54,8.54,40.64
7.294894,-0.1372,-0.2764,1.1099,-11.23,-10.74,2.20,-10.76,8.39,40.81
7.325030,-0.1587,-0.2119,1.1240,-10.86,-16.05,0.79,-10.98,8.12,40.88
7.325030,-0.1436,-0.1543,1.1348,-5.07,-19.47,0.00,-11.13,7.77,40.95
7.385165,-0.1328,-0.1152,1.1255,3.72,-22.16,-0.31,-11.14,7.36,41.01
7.385165,-0.1411,-0.1680,1.1226,18.19,-24.23,4.82,-10.90,6.90,41.13
7.414772,-0.1177,-0.2563,1.0522,18.43,-23.38,10.01,-10.48,6.45,41.37
7.414772,-0.0894,-0.2837,0.9971,8.24,-20.87,4.46,-10.19,6.04,41.59
7.445236,-0.0913,-0.2319,1.0142,3.97,-19.17,2.26,-10.07,5.65,41.70
7.445236,-0.0947,-0.1675,1.0298,5.68,-17.40,5.55,-9.97,5.30,41.84
7.505130,-0.0889,-0.1284,1.0459,3.36,-14.10,9.89,-9.86,5.02,42.05
7.505130,-0.0508,-0.1440,1.0508,1.04,-12.15,5.19,-9.80,4.78,42.24
7.534757,-0.0391,-0.1689,1.0479,0.85,-13.73,4.39,-9.78,4.54,42.36
7.534757,-0.0483,-0.2261,1.0190,0.79,-16.30,7.87,-9.74,4.26,42.53
7.565010,-0.0610,-0.2524,0.9863,-5.19,-12.70,11.78,-9.78,3.99,42.78
7.565010,-0.0571,-0.1919,0.9961,-8.67,-5.80,9.64,-9.92,3.85,43.02
7.625089,-0.0244,-0.1465,1.0244,-6.23,-6.04,5.98,-10.06,3.77,43.19
7.625089,0.0034,-0.1650,1.0420,-4.33,-13.12,6.90,-10.15,3.60,43.34
7.656065,-0.0122,-0.2012,1.0645,-7.51,-18.68,11.54,-10.27,3.31,43.58
7.656065,-0.0322,-0.2378,1.0591,-12.21,-19.04,12.02,-10.45,2.96,43.88
7.697238,-0.0605,-0.2451,1.0723,-17.46,-14.16,13.37,-10.74,2.67,44.18
7.697238,-0.0405,-0.2051,1.0889,-19.53,-6.71,14.65,-11.11,2.51,44.50
7.745157,0.0093,-0.1602,1.1245,-15.93,-2.38,8.42,-11.46,2.48,44.75
7.745157,0.0093,-0.1519,1.1689,-9.28,-3.91,4.33,-11.72,2.44,44.87
7.774971,-0.0122,-0.1973,1.1826,-5.98,-8.42,8.54,-11.85,2.34,45.01
7.774971,-0.0293,-0.2334,1.1626,-7.69,-10.74,11.84,-11.98,2.18,45.26
7.805100,-0.0405,-0.2178,1.1494,-9.83,-7.93,10.38,-12.16,2.03,45.52
7.805100,-0.0352,-0.1738,1.1562,-7.39,-3.11,5.68,-12.33,1.96,45.70
7.865128,-0.0229,-0.1509,1.1660,-1.46,1.04,-0.79,-12.41,1.95,45.75
7.865128,-0.0391,-0.1523,1.1772,4.15,0.18,0.24,-12.39,1.97,45.72
7.894901,-0.0625,-0.1807,1.1616,8.06,-2.87,8.67,-12.26,1.96,45.82
7.894901,-0.0615,-0.2012,1.1260,8.54,-0.31,11.05,-12.07,1.96,46.04
7.925043,-0.0576,-0.1768,1.1133,8.18,8.18,3.78,-11.91,2.06,46.18
7.925043,-0.0410,-0.1362,1.1216,11.84,13.61,-0.98,-11.72,2.29,46.16
7.985159,-0.0259,-0.1299,1.1084,17.15,13.37,-2.44,-11.42,2.56,46.07
7.985159,-0.0259,-0.1528,1.0820,20.20,10.93,-0.43,-11.05,2.79,46.00
8.014737,-0.0156,-0.1992,1.0391,17.82,10.93,-1.40,-10.65,3.00,45.95
8.014737,-0.0098,-0.1914,1.0249,10.50,10.93,-5.55,-10.38,3.21,45.85
8.045037,-0.0195,-0.1431,1.0449,7.02,6.29,-4.58,-10.22,3.37,45.71
8.045037,-0.0342,-0.1113,1.0566,8.30,0.49,-2.26,-10.07,3.42,45.64
8.105021,-0.0415,-0.1328,1.0405,8.91,-1.95,-0.92,-9.89,3.39,45.62
8.105021,-0.0557,-0.1611,1.0210,5.62,-0.92,-1.16,-9.74,3.36,45.60
8.134715,-0.0801,-0.1597,1.0205,1.16,2.44,-1.77,-9.68,3.37,45.57
8.134715,-0.0908,-0.1436,1.0391,-0.79,6.16,-3.60,-9.69,3.46,45.50
8.165912,-0.1104,-0.0195,1.2075,20.63,-1.89,0.98,-9.60,3.53,45.43
8.165912,-0.0527,-0.1035,1.1040,7.26,-6.65,6.29,-9.28,3.43,45.56
8.226107,-0.0938,-0.1499,1.0605,0.79,0.98,-2.56,-9.21,3.37,45.62
8.226107,-0.1104,-0.1631,1.0747,-2.69,8.48,-7.02,-9.26,3.47,45.48
8.254743,-0.0713,-0.1455,1.0972,-1.22,6.59,-3.17,-9.29,3.61,45.36
8.254743,-0.0356,-0.1504,1.1318,-2.38,2.01,-2.44,-9.33,3.69,45.30
8.315493,-0.0425,-0.1328,1.1855,-2.08,-1.95,-3.54,-9.38,3.68,45.24
8.315493,-0.0659,-0.1333,1.2334,0.12,-6.29,-0.98,-9.40,3.59,45.20
8.345008,-0.0874,-0.1558,1.2573,1.10,-9.03,0.98,-9.38,3.43,45.24
8.345008,-0.1372,-0.1729,1.2681,-2.99,-4.39,-1.16,-9.40,3.28,45.26
8.375613,-0.1631,-0.1982,1.2920,-9.52,5.92,-3.85,-9.53,3.30,45.21
8.375613,-0.1401,-0.2119,1.3203,-18.68,16.66,-10.07,-9.83,3.51,45.03
8.465807,-0.1177,-0.2222,1.3423,-26.00,20.02,-11.29,-10.29,3.86,44.75
8.465807,-0.0884,-0.2544,1.3218,-33.08,13.49,-6.41,-10.90,4.17,44.52
8.467920,-0.0176,-0.2993,1.2485,-40.65,0.73,-5.31,-11.65,4.30,44.39
8.467920,0.0176,-0.3438,1.2012,-51.51,-17.15,-11.90,-12.58,4.10,44.27
8.495482,-0.0034,-0.3223,1.1831,-59.02,-29.17,-18.92,-13.71,3.56,44.04
8.495482,-0.0591,-0.2593,1.2100,-63.72,-28.20,-14.89,-14.96,2.91,43.84
8.555509,-0.1084,-0.1963,1.2349,-56.70,-18.43,-15.26,-16.19,2.38,43.67
8.555509,-0.1216,-0.1646,1.2310,-36.25,-2.93,-19.04,-17.13,2.08,43.40
8.585050,-0.1299,-0.1636,1.2148,-10.93,15.69,-19.35,-17.61,2.10,42.98
8.585050,-0.1094,-0.2026,1.1807,11.23,27.77,-14.40,-17.59,2.44,42.52
8.615617,-0.0698,-0.2544,1.1201,27.28,33.33,-7.26,-17.19,2.99,42.15
8.615617,-0.0190,-0.3052,1.0708,36.68,33.94,-2.99,-16.55,3.62,41.87
8.675553,0.0039,-0.3188,1.0454,36.80,29.85,-0.37,-15.81,4.24,41.68
8.675553,0.0117,-0.2803,1.0371,34.67,24.29,-0.43,-15.10,4.76,41.55
8.716600,0.0029,-0.2319,1.0493,31.92,21.42,-3.97,-14.45,5.19,41.41
8.716600,-0.0210,-0.2188,1.0410,30.88,22.46,-8.24,-13.84,5.59,41.19
8.735514,-0.0337,-0.2271,0.9985,29.05,24.54,-11.05,-13.26,6.00,40.90
8.735514,-0.0859,-0.2466,0.9541,23.68,26.25,-10.01,-12.77,6.47,40.57
8.795657,-0.0967,-0.2515,0.9146,15.44,23.25,-0.37,-12.39,6.94,40.37
8.795657,-0.0635,-0.2266,0.9136,8.67,16.97,6.47,-12.16,7.35,40.37
8.827415,-0.0171,-0.1855,0.9302,6.29,10.01,6.53,-12.01,7.64,40.47
8.827415,-0.0352,-0.1421,0.9678,6.35,3.48,0.24,-11.88,7.78,40.51
8.854887,-0.1196,-0.1562,0.9702,8.48,-0.43,-1.34,-11.73,7.79,40.48
8.854887,-0.2192,-0.1729,0.9473,6.59,3.48,2.44,-11.57,7.81,40.50
8.914918,-0.2373,-0.1914,0.9697,9.52,16.11,4.64,-11.41,8.01,40.55
8.914918,-0.2163,-0.1704,0.9893,11.05,26.98,3.97,-11.20,8.48,40.55
8.945872,-0.1938,-0.1616,0.9927,14.28,31.13,6.59,-10.95,9.07,40.55
8.945872,-0.1060,-0.1592,0.9316,17.33,29.60,7.57,-10.61,9.71,40.61
8.974778,-0.0273,-0.1567,0.8950,18.80,20.63,-0.49,-10.26,10.23,40.60
8.974778,-0.0254,-0.1484,0.8623,24.72,4.09,-3.42,-9.84,10.46,40.51
9.034936,0.0117,-0.1733,0.8101,30.46,-9.34,-7.26,-9.28,10.38,40.42
9.034936,-0.0771,-0.1802,0.8291,27.40,-23.07,-0.98,-8.72,10.05,40.33
9.066166,-0.1724,-0.1587,0.8301,36.50,-39.49,22.58,-8.03,9.42,40.66
9.066166,-0.1768,-0.1494,0.7671,34.48,-31.25,24.96,-7.21,8.73,41.26
9.094899,-0.1519,-0.1045,0.7515,28.20,-8.12,11.90,-6.53,8.38,41.67
9.094899,-0.1035,-0.0435,0.7837,25.09,7.63,3.78,-6.00,8.43,41.80
9.155702,-0.0688,-0.0146,0.8057,28.87,5.00,7.87,-5.45,8.59,41.89
9.155702,-0.0986,-0.0835,0.7681,32.71,-8.00,24.23,-4.78,8.58,42.21
9.185879,-0.0864,-0.1196,0.7148,31.31,-13.98,33.14,-4.04,8.36,42.85
9.185879,-0.0723,-0.0977,0.6958,20.08,-5.19,25.33,-3.44,8.18,43.46
9.214872,-0.0591,0.0225,0.7622,19.29,-2.75,15.69,-3.03,8.14,43.85
9.214872,-0.0776,0.0767,0.7778,23.80,-8.48,13.61,-2.55,8.03,44.15
9.274925,-0.0972,0.0552,0.7568,27.28,-10.50,11.29,-2.01,7.84,44.40
9.274925,-0.1187,-0.0005,0.7344,24.84,-10.68,11.60,-1.45,7.62,44.63
9.306620,-0.1240,-0.0049,0.7217,20.32,-8.61,11.05,-0.97,7.43,44.86
9.306620,-0.1226,0.0146,0.7275,15.87,-6.23,7.93,-0.59,7.28,45.05
9.334802,-0.1309,0.0400,0.7256,10.99,-6.10,5.19,-0.31,7.16,45.18
9.334802,-0.1445,0.0737,0.7266,7.51,-6.47,3.05,-0.12,7.03,45.26
9.394866,-0.1304,0.0850,0.7275,3.78,-6.35,0.43,-0.01,6.90,45.30
9.394866,-0.1460,0.0796,0.7471,1.40,-7.63,0.55,0.04,6.76,45.29
9.425634,-0.1479,0.0845,0.7534,-1.10,-6.47,1.16,0.05,6.61,45.31
9.425634,-0.1582,0.0962,0.7544,-3.78,-3.78,0.06,-0.01,6.51,45.32
9.456034,-0.1582,0.0737,0.7393,-6.16,-0.43,0.61,-0.10,6.47,45.33
9.456034,-0.1357,0.0410,0.7261,-11.41,5.49,-0.92,-0.27,6.52,45.34
9.514823,-0.1138,0.0103,0.7334,-18.74,10.50,-3.60,-0.58,6.69,45.29
9.514823,-0.1055,0.0039,0.7842,-25.02,11.66,-3.54,-1.03,6.92,45.22
9.545103,-0.0938,0.0332,0.8530,-27.53,8.67,-5.43,-1.58,7.12,45.13
9.545103,-0.1113,0.0498,0.8906,-20.87,3.91,-6.16,-2.09,7.25,45.01
9.575429,-0.1289,0.0371,0.8760,-10.38,-0.18,-2.56,-2.40,7.28,44.92
9.575429,-0.1475,0.0010,0.8501,-3.78,-3.42,6.16,-2.53,7.25,44.95
9.634884,-0.1562,-0.0381,0.8174,0.24,-10.56,17.70,-2.52,7.11,45.21
9.634884,-0.1074,-0.0669,0.7930,-8.61,-6.29,14.10,-2.55,6.92,45.57
9.665297,-0.0981,-0.0605,0.8257,-15.62,0.06,3.23,-2.79,6.88,45.73
9.665297,-0.0752,-0.0225,0.8794,-19.96,-0.43,-2.87,-3.15,6.89,45.73
9.725254,-0.0586,0.0068,0.9136,-20.20,-6.77,-6.71,-3.58,6.82,45.63
9.725254,-0.0581,-0.0347,0.8989,-22.09,-11.66,-10.25,-4.01,6.61,45.46
9.770339,-0.0757,-0.0752,0.8828,-25.09,-8.67,-12.94,-4.50,6.38,45.24
9.770339,-0.0674,-0.0996,0.8955,-26.43,-0.98,-15.14,-5.05,6.28,44.96
9.786124,-0.0552,-0.0957,0.9263,-26.49,4.52,-16.91,-5.61,6.30,44.63
9.786124,-0.0474,-0.0908,0.9365,-23.68,6.04,-17.70,-6.15,6.39,44.27
9.845229,-0.0361,-0.0898,0.9102,-21.55,6.77,-19.17,-6.64,6.49,43.90
9.845229,-0.0234,-0.1040,0.9214,-20.94,3.78,-18.98,-7.10,6.56,43.49
9.875010,-0.1050,-0.1274,0.9585,-18.43,-0.92,-13.18,-7.53,6.55,43.17
9.875010,-0.1367,-0.1406,0.9673,-15.26,0.00,-8.97,-7.88,6.51,42.96
9.905219,-0.1016,-0.1309,0.9658,-13.98,1.59,-9.16,-8.20,6.51,42.78
9.905219,-0.0425,-0.1196,0.9961,-10.68,-4.21,-8.00,-8.46,6.48,42.60
9.965220,-0.0005,-0.0947,1.0381,-1.71,-15.87,-7.20,-8.60,6.26,42.49
9.965220,-0.0088,-0.0796,1.0264,9.03,-28.50,-7.32,-8.53,5.79,42.40
9.994876,-0.1108,-0.1021,0.9810,13.85,-35.71,-2.62,-8.28,5.11,42.37
9.994876,-0.2134,-0.1533,0.9565,10.80,-27.59,5.49,-8.02,4.47,42.48
10.025150,-0.1821,-0.1685,0.9702,8.18,-12.08,10.86,-7.82,4.10,42.70
10.025150,-0.0820,-0.1499,0.9668,8.12,-2.87,14.40,-7.65,4.01,42.97
10.085181,-0.0068,-0.1621,0.9614,4.39,-5.00,18.25,-7.49,3.98,43.31
10.085181,0.0161,-0.1704,0.9844,-2.44,-8.61,15.87,-7.46,3.87,43.68
10.114872,0.0474,-0.1548,1.0347,-4.94,-11.60,6.96,-7.53,3.70,43.92
10.114872,0.0190,-0.1206,1.0811,0.24,-19.35,6.23,-7.58,3.41,44.07
10.145142,-0.0239,-0.1387,1.0464,7.02,-23.01,11.66,-7.49,2.99,44.30
10.145142,-0.0186,-0.1973,0.9785,4.76,-14.83,11.72,-7.34,2.63,44.59
10.205236,0.0371,-0.2217,0.9844,-4.21,-6.71,4.82,-7.33,2.45,44.78
10.205236,0.0430,-0.1675,1.0493,-8.00,-11.72,1.04,-7.47,2.29,44.84
10.234861,0.0122,-0.1304,1.0444,-5.25,-19.04,3.72,-7.61,1.97,44.92
10.234861,0.0347,-0.1621,0.9653,-4.33,-16.91,1.89,-7.69,1.61,45.03
10.265089,0.0732,-0.2202,0.9160,-10.13,-13.37,-5.74,-7.82,1.31,45.03
10.265089,0.0708,-0.2388,0.9253,-24.78,-15.26,-15.99,-8.18,1.01,44.84
10.325597,-0.0483,-0.1675,0.9956,-33.45,-21.91,-13.24,-8.79,0.60,44.57
10.325597,-0.0933,-0.0884,1.0557,-31.98,-25.02,-2.81,-9.46,0.10,44.48
10.354795,-0.0986,-0.0171,1.0928,-21.85,-19.53,3.23,-10.01,-0.34,44.56
10.354795,-0.0728,-0.0391,1.0703,-9.64,-13.18,10.01,-10.32,-0.64,44.74
10.385089,0.0215,-0.1509,0.9980,-5.25,-10.13,12.57,-10.45,-0.82,45.02
10.385089,0.0859,-0.2202,0.9731,-11.23,-12.70,9.28,-10.62,-1.00,45.26
10.445572,0.0811,-0.2300,1.0186,-18.98,-21.30,6.96,-10.93,-1.32,45.48
10.445572,0.0122,-0.2002,1.0747,-22.40,-22.58,5.86,-11.37,-1.75,45.68
10.474789,-0.0396,-0.1489,1.1211,-20.02,-11.05,4.27,-11.81,-2.07,45.84
10.474789,-0.0361,-0.1270,1.1606,-14.10,4.09,2.93,-12.16,-2.11,45.92
10.505074,0.0098,-0.1279,1.1646,-6.47,8.24,4.09,-12.36,-1.95,45.96
10.505074,0.0396,-0.1509,1.1157,-1.22,1.28,6.59,-12.44,-1.83,46.04
10.567677,0.0454,-0.1699,1.0571,0.24,-6.47,6.96,-12.44,-1.86,46.20
10.567677,0.0371,-0.1865,1.0405,-2.26,-9.89,2.62,-12.47,-2.01,46.33
10.594866,0.0176,-0.1772,1.0762,-3.36,-10.25,-1.10,-12.54,-2.21,46.37
10.594866,-0.0220,-0.1582,1.1357,-2.20,-10.07,1.53,-12.60,-2.41,46.41
10.625736,-0.0142,-0.2134,1.1401,0.24,-7.93,8.24,-12.62,-2.57,46.55
10.625736,0.0459,-0.2500,1.1250,-1.04,-3.42,6.53,-12.63,-2.65,46.74
10.684775,0.0918,-0.2246,1.1616,-0.73,-0.18,-1.10,-12.66,-2.66,46.79
10.684775,0.0947,-0.1924,1.2051,2.14,-2.38,-4.70,-12.65,-2.70,46.72
10.714806,0.0220,-0.1641,1.2402,8.30,-4.33,1.04,-12.55,-2.78,46.69
10.714806,0.0381,-0.1592,1.2148,15.81,-0.55,7.08,-12.30,-2.82,46.80
10.744782,0.0923,-0.1665,1.1543,18.68,5.55,5.62,-11.96,-2.74,46.92
10.744782,0.1196,-0.1567,1.1099,20.32,10.62,-1.34,-11.56,-2.57,46.94
10.804924,0.1211,-0.1475,1.1025,21.06,14.95,-10.13,-11.15,-2.32,46.77
10.804924,0.0952,-0.1479,1.1089,27.04,13.43,-10.56,-10.65,-2.07,46.50
10.835587,0.0693,-0.1787,1.0762,30.40,11.41,-3.42,-10.05,-1.85,46.31
10.835587,0.0962,-0.1807,1.0386,28.87,5.62,4.64,-9.45,-1.68,46.32
10.864752,0.1216,-0.1543,1.0020,24.17,4.15,0.55,-8.93,-1.58,46.37
10.864752,0.0830,-0.1348,1.0107,21.24,5.13,-6.77,-8.48,-1.49,46.29
10.924987,0.0127,-0.1440,1.0244,16.91,4.76,-5.37,-8.08,-1.41,46.14
10.924987,-0.0127,-0.1299,1.0317,10.74,7.26,-2.20,-7.81,-1.30,46.07
10.955219,-0.0254,-0.1079,1.0439,6.29,12.57,-4.58,-7.64,-1.11,45.98
10.955219,-0.0273,-0.0879,1.0557,5.31,15.69,-4.82,-7.53,-0.82,45.85
11.015259,-0.0127,-0.0879,1.0576,6.29,13.67,-2.26,-7.40,-0.54,45.75
11.015259,0.0010,-0.0908,1.0527,8.18,11.47,-0.24,-7.26,-0.29,45.70
11.045649,0.0132,-0.1172,1.0381,7.45,9.58,-0.92,-7.10,-0.08,45.68
11.045649,0.0229,-0.1216,1.0308,3.48,7.39,-0.24,-6.99,0.09,45.65
11.074821,0.0405,-0.0928,1.0493,1.59,2.99,-1.34,-6.94,0.19,45.63
11.074821,0.0049,-0.0884,1.0708,2.62,-1.04,-1.83,-6.90,0.20,45.59
11.135628,-0.0210,-0.1162,1.0728,1.71,-2.44,-1.04,-6.84,0.16,45.57
11.135628,-0.0469,-0.1138,1.0991,-1.65,0.31,-1.71,-6.85,0.13,45.54
11.164806,-0.0674,-0.1035,1.1465,-3.48,5.86,-3.23,-6.90,0.19,45.48
11.164806,-0.0645,-0.1006,1.1870,-5.55,8.30,-1.65,-6.99,0.34,45.42
11.194906,-0.0288,-0.0913,1.2358,-6.47,5.68,0.12,-7.11,0.48,45.40
11.194906,-0.0039,-0.0518,1.2974,-5.80,0.00,-2.62,-7.25,0.54,45.37
11.255280,-0.0273,-0.0073,1.3477,0.18,-10.25,-2.62,-7.31,0.43,45.32
11.255280,-0.0957,-0.0098,1.3511,7.81,-18.92,2.01,-7.22,0.13,45.35
11.315102,-0.1577,-0.0786,1.3301,9.03,-17.46,4.52,-7.03,-0.24,45.46
11.315102,-0.1577,-0.1455,1.3296,4.64,-5.07,1.22,-6.89,-0.47,45.54
11.317148,-0.1064,-0.1738,1.3359,0.12,10.50,-2.62,-6.85,-0.41,45.51
11.317148,-0.0332,-0.1982,1.2949,-8.67,20.75,-3.54,-6.94,-0.09,45.42
11.375044,0.0400,-0.2036,1.2427,-17.88,26.98,-6.04,-7.20,0.39,45.27
11.375044,0.0801,-0.1660,1.2153,-24.23,28.75,-8.24,-7.63,0.94,45.07
11.404900,0.1128,-0.1206,1.2300,-26.25,24.17,-6.16,-8.15,1.46,44.87
11.404900,0.0298,-0.0493,1.2217,-19.78,19.41,-7.63,-8.63,1.87,44.68
11.434920,-0.0767,-0.0498,1.2158,-3.42,21.06,-4.70,-8.85,2.24,44.50
11.434920,-0.0737,-0.1074,1.1738,8.48,28.50,-2.08,-8.78,2.73,44.38
11.494952,-0.0288,-0.1567,1.1318,14.53,34.00,-4.58,-8.55,3.36,44.24
11.494952,-0.0151,-0.1914,1.1113,16.60,29.54,-4.46,-8.24,3.99,44.06
11.524860,-0.0376,-0.2109,1.0972,15.50,21.55,2.20,-7.92,4.49,43.98
11.524860,-0.0186,-0.2090,1.0757,12.82,17.03,3.91,-7.63,4.87,44.02
11.555185,0.0059,-0.1577,1.0913,11.47,13.18,1.95,-7.39,5.19,44.04
11.555185,-0.0107,-0.0845,1.1040,16.36,8.30,-2.01,-7.12,5.39,44.02
11.614964,-0.0645,-0.0596,1.0835,24.72,7.51,-2.44,-6.71,5.54,43.96
11.614964,-0.0752,-0.0513,1.0459,31.25,11.54,-4.52,-6.15,5.72,43.87
11.644833,-0.0742,-0.0386,1.0347,36.50,15.93,-5.86,-5.48,5.99,43.74
11.644833,-0.0200,-0.0493,1.0117,41.56,15.87,-6.23,-4.71,6.32,43.60
11.675187,-0.0244,-0.0654,0.9844,42.42,10.86,-6.65,-3.87,6.58,43.46
11.675187,-0.1367,-0.0791,0.9531,41.63,13.31,-0.24,-3.03,6.80,43.38
11.734964,-0.1909,-0.0903,0.9189,35.16,30.21,2.14,-2.26,7.22,43.40
11.734964,-0.2134,-0.0464,0.9497,30.52,48.58,5.74,-1.60,8.04,43.47
11.765000,-0.1938,-0.0044,0.9756,30.88,58.17,11.35,-0.98,9.13,43.65
11.765000,-0.1528,0.0400,0.9707,32.35,57.13,16.85,-0.30,10.29,43.96
11.805558,-0.1064,0.0747,0.9492,37.29,46.33,20.14,0.47,11.33,44.37
11.805558,-0.0728,0.0771,0.8960,41.38,30.15,20.57,1.35,12.08,44.83
11.855247,-0.0669,0.0723,0.8564,42.48,10.19,20.02,2.28,12.45,45.26
11.855247,-0.0894,0.0586,0.8198,41.87,-8.54,19.29,3.21,12.42,45.67
11.884973,-0.1250,0.0361,0.7881,37.84,-18.07,16.11,4.08,12.10,46.01
11.884973,-0.1509,0.0181,0.7720,30.64,-19.29,12.57,4.81,11.69,46.25
11.916109,-0.1802,0.0454,0.7861,23.01,-16.66,11.66,5.38,11.30,46.46
11.916109,-0.1787,0.0791,0.7769,19.84,-10.56,10.99,5.83,11.00,46.65
11.974983,-0.1514,0.0757,0.7363,16.97,-2.14,8.54,6.24,10.85,46.84
11.974983,-0.1411,0.0591,0.7314,10.01,2.44,7.69,6.54,10.85,46.99
12.004875,-0.1846,0.0845,0.7949,6.77,-4.21,21.00,6.74,10.81,47.26
12.004875,-0.1987,0.0981,0.8066,9.95,-12.02,34.91,7.00,10.54,47.83
12.034820,-0.1904,0.0928,0.7817,8.54,-5.80,34.91,7.31,10.24,48.52
12.034820,-0.1914,0.1294,0.7720,7.69,5.68,31.92,7.58,10.15,49.19
12.094933,-0.1758,0.1294,0.7676,8.24,13.73,33.63,7.85,10.26,49.87
12.094933,-0.1255,0.1216,0.7593,8.24,13.49,39.49,8.15,10.42,50.66
12.124822,-0.0913,0.0938,0.7520,5.43,13.24,37.05,8.44,10.55,51.48
12.124822,-0.0625,0.0942,0.7676,1.28,10.99,29.36,8.62,10.68,52.19
12.155117,-0.0625,0.1392,0.8042,-0.61,3.42,23.68,8.71,10.73,52.74
12.155117,-0.0767,0.1890,0.8184,1.83,-5.80,21.12,8.79,10.62,53.18
12.215760,-0.0898,0.2070,0.8110,5.49,-10.68,17.15,8.93,10.38,53.53
12.215760,-0.1094,0.2036,0.7983,7.32,-10.80,11.78,9.11,10.11,53.78
12.244876,-0.1211,0.1987,0.7935,8.54,-8.42,8.24,9.29,9.88,53.94
12.244876,-0.1196,0.1748,0.7793,7.93,-5.86,4.76,9.48,9.72,54.04
12.276083,-0.1191,0.1743,0.7607,4.09,-4.21,1.59,9.61,9.61,54.08
12.276083,-0.1270,0.1919,0.7588,-0.24,-1.46,-1.10,9.64,9.55,54.07
12.335621,-0.1333,0.2227,0.7637,-3.48,2.38,-3.66,9.60,9.57,54.03
12.335621,-0.1343,0.2217,0.7700,-5.19,6.29,-6.90,9.49,9.68,53.94
12.364972,-0.1338,0.2046,0.7817,-7.63,9.22,-9.64,9.34,9.87,53.80
12.364972,-0.1284,0.2031,0.7964,-9.28,9.09,-10.93,9.14,10.10,53.63
12.395020,-0.1245,0.2207,0.8096,-8.85,8.30,-12.63,8.92,10.31,53.43
12.395020,-0.1167,0.2188,0.8193,-7.57,7.75,-15.93,8.72,10.51,53.17
12.456180,-0.1421,0.2100,0.8228,-5.37,9.22,-18.80,8.53,10.74,52.85
12.456180,-0.1475,0.1865,0.8140,-5.19,12.94,-22.03,8.37,11.03,52.48
12.484834,-0.1367,0.1851,0.8169,-5.37,13.43,-24.29,8.18,11.38,52.06
12.484834,-0.1353,0.1982,0.8184,-3.72,9.46,-23.99,8.01,11.69,51.61
12.545630,-0.1289,0.1807,0.8135,-1.71,3.78,-23.19,7.87,11.90,51.16
12.545630,-0.1074,0.1543,0.8140,-2.75,-2.93,-25.45,7.73,11.98,50.68
12.575038,-0.1499,0.1362,0.8384,-3.97,-9.28,-27.40,7.56,11.94,50.12
12.575038,-0.1895,0.1396,0.8564,-4.58,-9.70,-26.98,7.36,11.82,49.54
12.606077,-0.2095,0.1587,0.8672,-5.31,-7.63,-26.92,7.15,11.73,48.97
12.606077,-0.2163,0.1719,0.8838,-5.49,-7.45,-24.54,6.94,11.66,48.43
12.665661,-0.2041,0.1748,0.8940,-5.74,-6.16,-24.23,6.73,11.60,47.93
12.665661,-0.1865,0.1934,0.9214,-1.46,-6.41,-25.39,6.56,11.55,47.41
12.694980,-0.2109,0.1714,0.9023,5.98,-11.35,-20.57,6.52,11.44,46.91
12.694980,-0.2153,0.0981,0.8384,6.59,-13.73,-14.04,6.59,11.23,46.54
12.725594,-0.2036,0.0293,0.8003,0.43,-12.39,-9.52,6.62,11.00,46.27
12.725594,-0.1338,0.0083,0.8076,-10.31,-9.83,-12.33,6.47,10.81,46.03
12.785774,-0.1094,0.0522,0.8848,-16.17,-15.20,-15.75,6.13,10.62,45.70
12.785774,-0.1670,0.1069,0.9375,-12.02,-26.25,-9.64,5.78,10.23,45.38
12.825214,-0.2026,0.1436,0.9170,-1.95,-28.56,-1.59,5.61,9.68,45.20
12.825214,-0.1729,0.1406,0.8740,6.16,-24.05,3.48,5.67,9.15,45.17
12.845664,-0.1392,0.1025,0.8394,9.16,-20.69,7.81,5.84,8.70,45.24
12.845664,-0.0967,0.0264,0.7881,2.38,-19.10,8.91,5.99,8.28,45.36
12.905777,-0.0581,0.0107,0.8169,-10.74,-18.74,5.19,5.91,7.89,45.46
12.905777,-0.0474,0.0317,0.8877,-21.85,-25.88,1.22,5.58,7.45,45.47
12.934985,-0.0684,0.0625,0.9790,-27.65,-36.93,-1.46,5.05,6.83,45.38
12.934985,-0.1675,0.0767,1.0381,-26.67,-44.37,6.84,4.49,5.99,45.34
12.965766,-0.1919,0.0469,1.0312,-25.15,-31.92,9.89,3.99,5.19,45.45
12.965766,-0.1069,0.0391,1.0312,-23.01,-14.04,4.88,3.52,4.74,45.56
13.025641,-0.0098,0.0864,1.0635,-16.78,-8.85,-0.12,3.11,4.54,45.58
13.025641,0.0352,0.0952,1.0581,-3.30,-18.07,3.60,2.91,4.28,45.59
13.055167,0.0400,0.0063,1.0244,5.98,-33.57,9.46,2.97,3.75,45.69
13.055167,-0.0200,-0.0889,0.9692,2.75,-43.40,11.54,3.08,2.93,45.85
13.085726,-0.1147,-0.0674,0.9443,-9.64,-39.55,13.18,3.01,2.07,46.03
13.085726,-0.1309,0.0098,0.9819,-19.35,-27.59,14.40,2.71,1.38,46.25
13.145689,-0.1045,0.1118,1.0205,-22.03,-15.14,17.33,2.28,0.94,46.54
13.145689,-0.0625,0.1548,1.0601,-19.23,-5.55,19.17,1.86,0.73,46.90
13.174855,-0.0371,0.1133,1.0713,-16.85,-3.85,21.61,1.51,0.63,47.30
13.174855,-0.0181,0.0166,1.0376,-18.37,-5.74,21.18,1.16,0.51,47.74
13.205730,-0.0073,-0.0371,1.0278,-26.79,-5.31,14.22,0.71,0.38,48.09
13.205730,-0.0210,-0.0200,1.0479,-35.83,-1.16,8.48,0.07,0.31,48.31
13.265683,-0.0166,0.0200,1.1030,-38.94,4.64,5.43,-0.69,0.34,48.44
13.265683,0.0000,0.0820,1.1841,-33.69,12.21,0.92,-1.43,0.52,48.51
13.294940,0.0112,0.1191,1.2456,-21.79,15.14,-2.50,-1.99,0.81,48.48
13.294940,-0.0098,0.0654,1.2344,-7.39,7.45,2.87,-2.27,1.04,48.47
13.325673,-0.0259,-0.0181,1.1460,2.93,-2.75,9.70,-2.29,1.08,48.61
13.325673,-0.0225,-0.0571,1.0664,0.61,-5.68,10.25,-2.24,0.98,48.83
13.384966,-0.0215,-0.0635,1.0498,-3.78,1.95,3.54,-2.27,0.94,48.97
13.384966,-0.0239,-0.0166,1.0796,-8.48,10.56,-0.24,-2.41,1.08,48.99
13.414938,-0.0283,0.0405,1.1201,-4.39,14.59,-0.79,-2.55,1.35,48.97
13.414938,-0.0308,0.0405,1.1411,4.09,12.27,-0.31,-2.55,1.63,48.96
13.445007,-0.0474,-0.0337,1.1167,7.51,6.41,4.52,-2.41,1.81,48.99
13.445007,-0.0298,-0.0898,1.0737,4.52,3.72,7.20,-2.29,1.91,49.12
13.505014,0.0269,-0.0713,1.0562,0.18,6.16,0.67,-2.24,2.01,49.21
13.505014,0.0435,-0.0088,1.0957,-2.20,7.63,-8.85,-2.27,2.15,49.12
13.534919,0.0376,0.0269,1.1406,1.59,1.95,-11.54,-2.29,2.25,48.90
13.534919,0.0088,0.0293,1.1519,7.51,-7.39,-7.32,-2.20,2.20,48.70
13.564925,-0.0166,0.0015,1.1187,8.42,-14.89,0.00,-2.03,1.96,48.64
13.564925,-0.0024,-0.0283,1.0825,6.41,-15.87,1.34,-1.87,1.64,48.67
13.624971,-0.0005,-0.0410,1.0503,1.04,-8.42,-4.03,-1.80,1.39,48.65
13.624971,0.0508,-0.0005,1.0562,0.31,-0.98,-13.18,-1.80,1.31,48.48
13.656859,0.1147,0.0356,1.0669,3.60,-0.73,-25.82,-1.77,1.30,48.09
13.656859,0.0039,0.0454,1.0889,7.45,-3.30,-31.98,-1.66,1.25,47.49
13.684977,-0.0630,0.0635,1.1406,13.49,-1.65,-17.52,-1.45,1.20,46.98
13.684977,-0.0410,0.0112,1.0903,14.28,-0.55,-6.29,-1.17,1.18,46.76
13.745724,-0.0229,-0.0083,1.0312,9.28,-1.71,-2.56,-0.93,1.16,46.69
13.745724,-0.0176,-0.0078,1.0205,6.16,-3.36,-0.61,-0.79,1.10,46.66
13.775045,0.0000,0.0200,1.0488,3.97,0.00,-3.05,-0.68,1.07,46.63
13.775045,0.0049,0.0537,1.0879,4.03,2.62,-6.53,-0.61,1.10,46.53
13.805634,-0.0059,0.0508,1.0908,7.45,-0.06,-8.12,-0.49,1.14,46.38
13.805634,-0.0146,0.0225,1.0684,5.13,-2.32,-0.61,-0.36,1.12,46.29
13.865771,-0.0161,0.0273,1.0493,2.81,-2.62,0.79,-0.29,1.06,46.31
13.865771,-0.0264,0.0205,1.0439,0.49,-0.98,-1.65,-0.25,1.02,46.30
13.894967,-0.0278,0.0288,1.0518,-2.32,1.16,-2.99,-0.27,1.03,46.25
13.894967,-0.0288,0.0410,1.0674,-3.78,2.32,-3.05,-0.34,1.07,46.19
13.956254,-0.0220,0.0576,1.0698,-3.05,2.69,-2.08,-0.41,1.12,46.14
13.956254,-0.0156,0.0728,1.0718,0.24,1.28,-2.93,-0.44,1.17,46.09
13.985025,-0.0293,0.0264,1.0464,2.14,-3.54,-0.18,-0.41,1.14,46.05
13.985025,-0.0410,-0.0020,1.0229,-2.20,-4.46,2.01,-0.40,1.05,46.08
14.015688,-0.0293,0.0376,1.0439,-4.21,-0.49,-0.12,-0.48,1.00,46.10
14.015688,-0.0244,0.0786,1.0732,1.83,3.30,-3.36,-0.51,1.04,46.07
14.075665,0.0024,0.0483,1.0508,5.80,1.95,-2.69,-0.41,1.10,46.01
14.075665,0.0239,0.0181,1.0210,4.15,-0.61,-3.11,-0.31,1.12,45.95
14.104989,0.0161,0.0161,1.0249,0.61,-3.48,-1.71,-0.26,1.08,45.90
14.104989,0.0654,0.0562,1.0615,-0.37,-8.54,-0.37,-0.27,0.96,45.88
14.134888,0.0630,0.0762,1.1035,0.24,-12.21,-2.32,-0.27,0.74,45.85
14.134888,0.0024,0.0708,1.1304,0.92,-4.15,-9.22,-0.25,0.56,45.74
14.195798,-0.0713,0.0601,1.1836,-1.59,8.00,-14.65,-0.25,0.62,45.49
14.195798,-0.0991,0.0615,1.2324,-2.08,12.57,-11.11,-0.30,0.85,45.22
14.224982,-0.0796,0.0562,1.2515,-0.67,7.81,-0.61,-0.32,1.06,45.12
14.224982,-0.0391,0.0630,1.2563,-2.20,5.19,0.31,-0.35,1.18,45.14
14.255150,-0.0552,0.0420,1.2539,-2.93,5.86,-1.65,-0.40,1.29,45.12
14.255150,-0.0566,-0.0474,1.1890,-10.25,5.74,-0.18,-0.52,1.42,45.10
14.315055,-0.0337,-0.1357,1.1133,-29.66,0.79,2.38,-0.91,1.48,45.13
14.315055,0.0288,-0.0581,1.1934,-50.29,2.01,-5.68,-1.74,1.49,45.13
14.345136,-0.1069,0.1157,1.3545,-46.81,10.31,-17.64,-2.75,1.61,44.86
14.345136,-0.1865,0.0674,1.3779,-30.88,12.88,-6.65,-3.52,1.86,44.59
14.375033,-0.1426,-0.0586,1.2754,-25.76,14.28,6.47,-4.05,2.12,44.61
14.375033,-0.1001,-0.1123,1.2305,-26.55,19.10,8.91,-4.58,2.46,44.76
14.435073,-0.0591,-0.0151,1.2646,-17.94,26.79,0.92,-5.04,2.94,44.84
14.435073,-0.0938,0.0234,1.2896,-0.92,20.14,6.04,-5.21,3.44,44.85
14.465069,-0.1040,-0.0439,1.2441,11.17,8.36,22.64,-5.07,3.73,45.12
14.465069,-0.1099,-0.1099,1.1489,10.56,5.62,31.86,-4.81,3.88,45.69
14.494954,-0.0894,-0.1436,1.0620,3.85,13.00,27.71,-4.62,4.10,46.30
14.494954,-0.0762,-0.1338,0.9932,-5.07,25.63,13.98,-4.61,4.52,46.69
14.556370,-0.0518,-0.1152,0.9932,-10.56,35.52,3.42,-4.77,5.15,46.82
14.556370,-0.0410,-0.0425,1.0767,-15.75,43.21,-4.64,-5.05,5.94,46.76
14.615148,-0.0596,0.0962,1.1812,-5.19,49.26,-15.20,-5.31,6.87,46.48
14.615148,-0.1455,0.1396,1.2378,17.94,44.56,-9.03,-5.22,7.80,46.15
14.616768,-0.1680,0.0356,1.1553,42.72,35.16,4.88,-4.59,8.58,46.08
14.616768,-0.1450,-0.0723,1.0386,50.90,33.94,7.45,-3.61,9.27,46.19
14.675040,-0.1011,-0.1006,0.9849,52.31,31.31,4.27,-2.55,9.94,46.29
14.675040,-0.0654,-0.0884,0.9717,48.52,16.91,2.26,-1.53,10.43,46.35
14.704962,-0.1655,-0.0659,0.9722,42.72,-0.37,6.41,-0.61,10.57,46.43
14.704962,-0.2568,-0.0552,0.9683,35.89,-0.85,10.13,0.20,10.52,46.61
14.734899,-0.2729,-0.0249,0.9766,28.99,12.82,8.12,0.88,10.63,46.81
14.734899,-0.2368,0.0288,1.0010,26.55,27.22,5.49,1.46,11.05,46.97
14.795070,-0.1650,0.0762,1.0254,26.86,30.70,5.13,2.00,11.65,47.10
14.795070,-0.1733,0.1030,1.0200,33.08,25.57,7.87,2.64,12.20,47.27
14.825288,-0.1816,0.1152,0.9868,39.43,21.06,13.79,3.43,12.65,47.54
14.825288,-0.1841,0.1196,0.9546,40.83,18.98,13.24,4.30,13.01,47.86
14.860292,-0.1577,0.1201,0.9453,41.02,14.65,11.66,5.19,13.34,48.15
14.860292,-0.1294,0.1157,0.9336,41.99,1.22,11.78,6.08,13.47,48.41
14.915092,-0.1006,0.1006,0.8877,40.10,-15.14,13.79,6.96,13.28,48.66
14.915092,-0.1299,0.0923,0.8462,34.91,-23.99,12.02,7.75,12.83,48.86
14.945101,-0.2231,0.0923,0.8262,30.52,-19.78,13.92,8.44,12.34,49.04
14.945101,-0.2607,0.0820,0.8149,25.82,-5.00,13.37,9.05,12.04,49.27
14.975118,-0.2964,0.0757,0.8145,19.84,14.95,15.56,9.56,12.10,49.58
14.975118,-0.2510,0.0840,0.8135,13.92,30.64,19.41,9.99,12.50,50.03
15.034949,-0.1484,0.1294,0.8164,8.54,36.32,20.20,10.32,13.10,50.58
15.034949,-0.0469,0.1821,0.8013,6.59,24.41,20.94,10.59,13.63,51.12
15.065065,0.0181,0.2036,0.7881,8.42,-1.10,19.84,10.84,13.77,51.60
15.065065,-0.0781,0.1777,0.7866,10.31,-26.61,19.10,11.10,13.39,51.90
15.094979,-0.2324,0.1235,0.7715,9.83,-32.47,22.09,11.37,12.68,52.18
15.094979,-0.3057,0.0903,0.7720,3.36,-18.37,22.09,11.56,12.07,52.51
15.155255,-0.2881,0.1157,0.7939,-2.01,0.92,22.28,11.65,11.82,52.92
15.155255,-0.1699,0.1572,0.8027,-4.33,13.85,19.41,11.66,11.89,53.38
15.184919,-0.0879,0.2065,0.8281,-1.22,10.31,18.25,11.68,12.07,53.79
15.184919,-0.0596,0.2114,0.8247,5.86,-5.13,22.58,11.82,12.02,54.22
15.214982,-0.0728,0.1860,0.7930,9.95,-17.52,21.85,12.06,11.67,54.62
15.214982,-0.1138,0.2002,0.7676,9.70,-20.81,16.48,12.32,11.20,54.90
15.275724,-0.1426,0.2368,0.7456,9.83,-17.64,12.57,12.55,10.76,55.09
15.275724,-0.1401,0.2412,0.7329,9.70,-12.15,10.99,12.77,10.41,55.24
15.304913,-0.1294,0.2324,0.7153,7.93,-4.88,8.36,12.97,10.20,55.39
15.304913,-0.1377,0.2183,0.7095,5.98,1.83,6.23,13.13,10.14,55.53
15.364995,-0.1201,0.2202,0.6919,1.46,6.96,2.32,13.22,10.21,55.64
15.364995,-0.1006,0.2529,0.6860,-1.10,6.10,-1.34,13.23,10.35,55.68
15.394945,-0.0957,0.2695,0.6777,-2.50,0.43,-4.52,13.18,10.43,55.65
15.394945,-0.1167,0.2515,0.6792,-4.39,-7.32,-7.39,13.10,10.39,55.50
15.425712,-0.1611,0.2227,0.6821,-9.83,-10.80,-9.03,12.92,10.24,55.29
15.425712,-0.1865,0.2168,0.7046,-17.09,-9.28,-12.70,12.60,10.09,55.03
15.485841,-0.2144,0.2378,0.7515,-22.64,-7.08,-13.24,12.15,10.00,54.73
15.485841,-0.2100,0.2441,0.7954,-23.44,-5.74,-11.78,11.63,9.93,54.45
15.517676,-0.1885,0.2432,0.8125,-23.62,-4.21,-11.66,11.13,9.89,54.20
15.517676,-0.1611,0.2446,0.8423,-22.28,-2.75,-13.49,10.62,9.88,53.94
15.546011,-0.1548,0.2373,0.8618,-18.01,-3.91,-12.21,10.18,9.87,53.66
15.546011,-0.1489,0.2124,0.8350,-15.08,-2.69,-10.31,9.82,9.84,53.44
15.605720,-0.1274,0.1670,0.8105,-16.17,3.78,-12.94,9.48,9.89,53.21
15.605720,-0.0952,0.1416,0.8369,-19.35,9.03,-18.13,9.07,10.09,52.93
15.636155,-0.0840,0.1655,0.8950,-21.00,7.02,-23.74,8.60,10.34,52.54
15.636155,-0.1055,0.2036,0.9365,-15.99,-0.79,-24.48,8.14,10.49,52.05
15.665005,-0.1206,0.1738,0.9082,-8.06,-9.52,-21.97,7.83,10.44,51.58
15.665005,-0.1196,0.1260,0.8599,-5.62,-12.02,-22.77,7.63,10.29,51.10
15.725855,-0.1416,0.0688,0.8320,-10.93,-8.91,-24.84,7.39,10.16,50.58
15.725855,-0.1523,0.0557,0.8506,-20.57,-2.62,-24.60,6.99,10.12,50.07
15.758281,-0.1226,0.0757,0.9062,-26.79,3.11,-26.73,6.42,10.21,49.56
15.758281,-0.0981,0.1177,0.9761,-26.55,1.65,-29.17,5.78,10.34,49.00
15.786863,-0.1069,0.1587,1.0005,-19.65,-8.36,-26.12,5.22,10.35,48.43
15.786863,-0.1270,0.1499,0.9600,-12.21,-17.03,-22.03,4.83,10.13,47.92
15.845883,-0.1562,0.1147,0.9146,-8.48,-16.66,-21.06,4.55,9.83,47.46
15.845883,-0.1943,0.0615,0.8906,-8.91,-10.38,-19.17,4.32,9.60,47.02
15.875722,-0.1738,0.0444,0.8926,-12.33,-2.75,-19.35,4.05,9.51,46.63
15.875722,-0.1323,0.0664,0.9185,-13.67,-2.26,-18.49,3.72,9.51,46.24
15.905732,-0.1104,0.0786,0.9224,-12.02,-8.30,-15.87,3.41,9.44,45.88
15.905732,-0.0923,0.0625,0.8950,-12.51,-14.53,-14.89,3.13,9.23,45.57
15.965882,-0.1309,0.0488,0.8779,-17.64,-17.21,-16.05,2.77,8.93,45.23
15.965882,-0.1572,0.0103,0.8994,-24.05,-16.24,-15.01,2.31,8.61,44.89
15.995051,-0.1543,-0.0010,0.9551,-29.91,-14.10,-14.77,1.71,8.33,44.57
15.995051,-0.0996,0.0034,1.0078,-31.86,-16.78,-15.08,1.05,8.05,44.26
16.025131,-0.0850,0.0400,1.0483,-31.13,-23.99,-15.26,0.38,7.65,43.94
16.025131,-0.1074,0.0591,1.0596,-27.22,-28.93,-14.53,-0.24,7.11,43.63
16.086231,-0.1436,0.0405,1.0327,-21.79,-24.90,-13.73,-0.76,6.56,43.33
16.086231,-0.1553,-0.0098,0.9990,-19.23,-14.83,-12.39,-1.19,6.18,43.07
16.118140,-0.1089,-0.0498,0.9824,-20.57,-10.19,-10.31,-1.59,5.94,42.84
16.118140,-0.0649,-0.0503,0.9922,-21.97,-12.63,-9.40,-2.04,5.72,42.65
16.147717,-0.0493,-0.0444,1.0044,-24.78,-18.92,-10.62,-2.53,5.41,42.45
16.147717,-0.0767,-0.0156,1.0249,-23.19,-23.99,-10.07,-3.03,4.96,42.25
16.205010,-0.1035,0.0029,1.0288,-20.08,-21.73,-9.09,-3.47,4.48,42.08
16.205010,-0.0952,-0.0098,1.0381,-17.58,-16.42,-9.28,-3.86,4.10,41.91
16.235914,-0.0757,-0.0200,1.0586,-14.53,-13.06,-8.42,-4.19,3.81,41.74
16.235914,-0.0425,-0.0239,1.0737,-9.64,-13.55,-7.57,-4.44,3.54,41.59
16.267689,-0.0391,-0.0420,1.0479,-4.15,-19.29,-2.50,-4.57,3.21,41.51
16.267689,-0.0474,-0.0664,1.0039,-4.52,-19.84,0.00,-4.65,2.80,41.52
16.325857,-0.0571,-0.0693,1.0000,-8.97,-13.37,-3.17,-4.78,2.47,41.51
16.325857,-0.0610,-0.0811,1.0327,-9.52,-7.14,-5.49,-4.98,2.26,41.43
16.356234,-0.0332,-0.1133,1.0381,-8.67,-5.07,-8.24,-5.16,2.14,41.30
16.356234,-0.0347,-0.1079,1.0400,-10.31,-7.26,-8.06,-5.36,2.01,41.14
16.385233,-0.0410,-0.1143,1.0312,-11.35,-11.78,-3.85,-5.58,1.81,41.03
16.385233,-0.0430,-0.1338,1.0347,-14.04,-13.18,0.12,-5.82,1.55,41.02
16.445082,-0.0410,-0.1440,1.0547,-19.65,-9.95,1.40,-6.17,1.32,41.06
16.445082,-0.0273,-0.1611,1.0757,-22.71,-5.68,0.00,-6.59,1.17,41.09
16.475760,-0.0332,-0.1348,1.1094,-27.10,-2.93,-0.61,-7.10,1.09,41.09
16.475760,-0.0479,-0.0918,1.1221,-25.45,-1.16,0.73,-7.64,1.04,41.09
16.504992,-0.0518,-0.0908,1.1045,-21.42,3.66,0.73,-8.10,1.07,41.12
16.504992,-0.0249,-0.1382,1.1011,-18.25,6.96,-1.22,-8.50,1.19,41.10
16.565837,-0.0264,-0.1655,1.1094,-13.98,3.60,-0.61,-8.82,1.30,41.06
16.565837,-0.0156,-0.1641,1.0938,-13.49,-1.10,1.59,-9.09,1.32,41.07
16.595007,-0.0190,-0.1367,1.0879,-12.39,-0.06,-0.67,-9.35,1.30,41.09
16.595007,-0.0210,-0.1240,1.0815,-9.95,4.15,-1.40,-9.58,1.34,41.06
16.625726,0.0078,-0.1567,1.0762,-8.06,6.84,-2.75,-9.75,1.46,41.00
16.625726,0.0557,-0.1768,1.0688,-9.22,3.60,-6.16,-9.93,1.55,40.90
16.685733,0.0723,-0.1782,1.0830,-8.36,-5.86,-10.50,-10.11,1.52,40.73
16.685733,0.0415,-0.1660,1.1045,-6.90,-16.66,-10.25,-10.27,1.25,40.55
16.715125,-0.0107,-0.1426,1.1235,-3.72,-19.59,-9.89,-10.37,0.84,40.41
16.715125,-0.0781,-0.1372,1.1250,-0.31,-11.72,-7.75,-10.40,0.49,40.29
16.775891,-0.0610,-0.1411,1.1011,0.18,4.52,-9.89,-10.40,0.40,40.14
16.775891,-0.0078,-0.1313,1.1064,0.49,15.32,-15.08,-10.39,0.59,39.85
16.805754,0.0010,-0.1255,1.1206,3.42,12.76,-14.53,-10.36,0.83,39.50
16.805754,-0.0269,-0.1309,1.1099,7.26,4.27,-9.16,-10.25,0.97,39.25
16.835063,-0.0132,-0.1387,1.0586,10.56,2.32,-5.19,-10.06,1.00,39.10
16.835063,-0.0210,-0.1455,1.0337,9.95,5.86,-4.27,-9.85,1.07,39.00
16.895887,-0.0186,-0.1475,1.0298,9.52,10.93,-7.02,-9.66,1.22,38.86
16.895887,-0.0391,-0.1143,1.0586,10.74,12.27,-7.63,-9.46,1.44,38.68
16.930334,-0.0762,-0.1133,1.0698,16.72,8.61,-3.48,-9.18,1.64,38.53
16.930334,-0.0825,-0.1348,1.0376,18.80,5.62,2.20,-8.82,1.77,38.52
16.956051,-0.0635,-0.1709,0.9976,15.87,6.35,0.18,-8.46,1.90,38.53
16.956051,-0.0601,-0.1592,0.9976,10.13,6.23,-0.49,-8.21,2.02,38.51
17.015956,-0.0537,-0.1538,1.0122,6.65,3.91,0.85,-8.04,2.13,38.50
17.015956,-0.0366,-0.1465,1.0186,2.32,-0.06,2.56,-7.95,2.17,38.54
17.045044,-0.0459,-0.1304,1.0273,-1.22,-3.11,2.50,-7.94,2.14,38.59
17.045044,-0.0625,-0.1177,1.0420,-2.26,-5.25,3.85,-7.98,2.07,38.67
17.075771,-0.0571,-0.1104,1.0425,-2.08,-6.90,5.55,-8.03,1.95,38.78
17.075771,-0.0591,-0.1191,1.0405,-1.65,-6.96,6.53,-8.06,1.82,38.92
17.135083,-0.0562,-0.1265,1.0332,-3.91,-3.30,5.86,-8.11,1.73,39.06
17.135083,-0.0562,-0.1108,1.0488,-6.04,2.87,2.87,-8.21,1.75,39.15
17.165081,-0.0317,-0.0957,1.0757,-5.37,3.23,2.69,-8.33,1.83,39.19
17.165081,-0.0254,-0.1001,1.0884,-3.97,-2.38,5.25,-8.42,1.85,39.27
17.195950,-0.0332,-0.1011,1.0908,-3.48,-3.30,5.98,-8.49,1.80,39.40
17.195950,-0.0449,-0.0894,1.1172,-2.20,1.10,3.48,-8.55,1.79,39.50
17.256087,-0.0444,-0.0933,1.1445,-1.04,3.60,2.93,-8.58,1.85,39.55
17.256087,-0.0269,-0.1040,1.1440,2.81,2.56,3.48,-8.55,1.92,39.61
17.284991,-0.0156,-0.1328,1.1460,2.26,0.73,4.09,-8.49,1.97,39.69
17.284991,-0.0068,-0.1265,1.1567,0.31,-0.37,2.32,-8.47,1.98,39.75
17.314965,-0.0273,-0.1294,1.1494,-0.67,-1.83,1.95,-8.47,1.96,39.80
17.314965,-0.0552,-0.1782,1.1133,-4.94,-3.78,4.33,-8.51,1.92,39.87
17.375155,-0.0908,-0.2212,1.0874,-13.73,-2.87,5.80,-8.71,1.86,39.98
17.375155,-0.0703,-0.1841,1.1230,-25.02,6.65,2.08,-9.10,1.90,40.08
17.405227,-0.0728,-0.0879,1.2104,-23.68,18.13,-8.67,-9.62,2.16,39.96
17.405227,-0.0913,-0.0405,1.2710,-12.76,15.75,-7.45,-9.99,2.49,39.73
17.435078,-0.0703,-0.0659,1.2729,1.89,2.44,5.98,-10.10,2.67,39.68
17.435078,-0.0703,-0.1353,1.2202,14.53,-9.22,20.81,-9.90,2.63,39.98
17.495141,-0.0830,-0.1851,1.1528,16.72,-11.23,24.84,-9.56,2.48,40.49
17.495141,-0.0615,-0.1846,1.1445,18.92,-7.63,21.79,-9.19,2.36,40.98
17.524999,-0.0303,-0.1680,1.1626,18.07,-8.61,21.36,-8.80,2.27,41.42
17.524999,0.0000,-0.1655,1.1641,10.38,-12.02,21.18,-8.50,2.12,41.87
17.555388,0.0220,-0.1230,1.1978,1.10,-16.11,20.51,-8.38,1.90,42.34
17.555388,0.0112,-0.0986,1.2334,0.43,-19.17,11.35,-8.39,1.58,42.70
17.615112,-0.0010,-0.1035,1.2275,5.43,-19.10,3.48,-8.32,1.21,42.88
17.615112,-0.0229,-0.0884,1.2383,9.89,-18.25,2.81,-8.16,0.85,42.97
17.645033,0.0000,-0.0791,1.2246,16.85,-16.48,5.74,-7.89,0.52,43.10
17.645033,0.0439,-0.0659,1.2007,24.35,-15.87,7.14,-7.48,0.21,43.28
17.675162,0.0732,-0.0820,1.1675,30.76,-15.44,3.42,-6.92,-0.08,43.42
17.675162,0.1001,-0.1279,1.1089,31.98,-13.61,-3.72,-6.27,-0.38,43.44
17.735096,0.0972,-0.1602,1.0674,26.86,-10.93,-7.45,-5.68,-0.63,43.34
17.735096,0.0762,-0.1548,1.0220,21.73,-9.40,-7.39,-5.19,-0.84,43.20
17.765222,0.0591,-0.1709,0.9702,14.47,-3.36,-8.48,-4.82,-0.98,43.06
17.765222,0.0347,-0.1738,0.9565,9.34,6.96,-12.45,-4.60,-0.96,42.85
17.795030,0.0317,-0.1230,0.9541,5.98,17.94,-16.05,-4.42,-0.71,42.54
17.795030,0.0249,-0.0767,0.9883,0.31,24.41,-17.58,-4.37,-0.29,42.18
17.855304,0.0244,-0.0112,1.0254,3.30,26.37,-17.03,-4.34,0.21,41.81
17.855304,0.0000,0.0127,1.0371,11.78,24.90,-13.98,-4.17,0.71,41.47
17.915142,-0.0195,0.0068,1.0264,18.37,21.67,-10.62,-3.87,1.16,41.20
17.915142,-0.0249,-0.0059,1.0137,22.16,19.17,-9.09,-3.46,1.56,41.00
17.950434,-0.0259,0.0063,1.0063,25.27,14.71,-10.01,-2.98,1.90,40.80
17.950434,-0.0469,-0.0005,0.9844,25.09,4.39,-7.20,-2.46,2.09,40.61
17.975056,-0.0522,-0.0083,0.9834,24.05,-9.58,0.55,-1.97,2.03,40.55
17.975056,-0.0649,-0.0117,0.9473,20.69,-19.35,2.75,-1.52,1.72,40.61
18.005003,-0.1045,-0.0049,0.9590,16.30,-18.13,-0.12,-1.16,1.33,40.62
18.005003,-0.1216,0.0171,1.0132,21.30,-8.73,0.67,-0.81,1.05,40.63
18.035060,-0.1064,-0.0718,0.9463,8.61,6.29,-1.71,-0.51,1.02,40.62
18.035060,-0.1011,-0.0225,0.9419,8.36,22.09,0.37,-0.32,1.32,40.60
18.095123,-0.0396,-0.0068,0.9043,12.27,30.27,5.00,-0.12,1.87,40.67
18.095123,0.0176,-0.0210,0.8545,14.28,28.99,10.99,0.16,2.48,40.85
18.125020,0.0596,-0.0361,0.8008,11.60,23.93,13.61,0.43,2.99,41.13
18.125020,0.0210,0.0000,0.8169,12.39,19.96,15.75,0.68,3.42,41.43
18.185132,0.0166,0.0449,0.8232,17.64,14.28,20.45,1.00,3.75,41.81
18.185132,0.0630,0.0298,0.7749,18.86,10.68,15.93,1.40,3.97,42.22
18.215088,0.1025,0.0195,0.7231,11.35,16.11,0.31,1.72,4.24,42.39
18.215088,-0.0249,0.0508,0.8052,7.02,7.02,-11.17,1.86,4.52,42.31
18.245060,-0.0293,0.0679,0.8091,10.19,6.84,-6.35,2.09,4.66,42.11
18.245060,-0.0718,0.0757,0.9028,5.00,5.68,11.72,2.22,4.80,42.19
18.305022,-0.0957,0.0918,0.9209,10.50,6.16,20.32,2.41,4.89,42.54
18.305022,-0.0776,0.1001,0.9067,10.93,12.39,20.87,2.66,5.05,42.98
18.335004,-0.0430,0.1089,0.9028,13.00,14.10,21.18,2.93,5.30,43.42
18.335004,-0.0171,0.0942,0.8877,16.54,10.31,21.06,3.27,5.51,43.86
18.365785,-0.0015,0.0830,0.8633,21.12,4.70,18.13,3.68,5.62,44.27
18.365785,0.0249,0.0771,0.8140,21.30,-3.17,13.06,4.14,5.61,44.59
18.430626,0.0098,0.0840,0.7827,18.55,-11.47,8.00,4.56,5.43,44.78
18.430626,-0.0239,0.0938,0.7671,14.16,-15.44,3.60,4.89,5.15,44.86
18.457424,-0.0542,0.1123,0.7637,10.86,-14.83,-0.55,5.14,4.83,44.86
18.457424,-0.0913,0.1060,0.7686,7.63,-12.82,-2.14,5.32,4.56,44.79
18.485555,-0.1255,0.0874,0.7563,2.26,-8.06,-2.50,5.41,4.36,44.72
18.485555,-0.1489,0.0894,0.7446,-5.00,0.31,-2.93,5.38,4.28,44.66
18.545862,-0.1621,0.1255,0.7476,-10.80,9.40,-4.27,5.21,4.40,44.60
18.545862,-0.1533,0.1416,0.7476,-14.53,15.44,-3.42,4.94,4.67,44.55
18.575138,-0.1104,0.1494,0.7354,-17.33,14.83,-2.81,4.62,4.99,44.53
18.575138,-0.0957,0.1387,0.7388,-18.62,10.44,-4.21,4.26,5.25,44.48
18.605784,-0.1108,0.1089,0.7637,-19.65,7.08,-5.19,3.87,5.43,44.41
18.605784,-0.1084,0.0747,0.7798,-22.28,7.81,-7.45,3.44,5.59,44.30
18.665588,-0.0845,0.0928,0.8247,-24.41,8.42,-12.33,2.95,5.77,44.11
18.665588,-0.0820,0.1235,0.8779,-20.45,1.83,-15.14,2.47,5.91,43.84
18.695700,-0.1177,0.1270,0.8887,-11.96,-7.39,-16.17,2.12,5.86,43.52
18.695700,-0.1660,0.0889,0.8301,-5.68,-10.99,-15.38,1.92,5.68,43.19
18.725954,-0.1904,0.0366,0.7437,-3.48,-7.08,-12.88,1.82,5.51,42.89
18.725954,-0.1626,-0.0205,0.7139,-8.61,-1.71,-9.89,1.69,5.44,42.67
18.785906,-0.1245,-0.0122,0.7749,-15.14,0.61,-8.18,1.43,5.46,42.48
18.785906,-0.1143,0.0259,0.8623,-16.54,-7.08,-5.07,1.10,5.41,42.35
18.815019,-0.1343,0.0581,0.9302,-15.69,-11.29,-5.31,0.76,5.21,42.24
18.815019,-0.1548,0.0679,0.9604,-12.21,-9.46,-7.32,0.47,5.01,42.10
18.844987,-0.2153,0.0317,0.9575,-9.52,-5.98,1.65,0.26,4.84,42.03
18.844987,-0.1660,-0.0107,0.9277,-10.44,6.53,8.18,0.08,4.84,42.15
18.905765,-0.0586,0.0225,0.9512,-12.94,17.64,5.13,-0.16,5.11,42.30
18.905765,0.0083,0.0791,0.9907,-8.06,13.37,2.01,-0.37,5.44,42.37
18.934952,0.0488,0.0645,0.9556,-1.95,1.34,-0.24,-0.46,5.59,42.40
18.934952,0.0317,0.0166,0.8979,-0.61,-6.65,-5.07,-0.48,5.52,42.35
18.965195,0.0151,-0.0010,0.8672,-4.76,-10.19,-13.18,-0.54,5.36,42.16
18.965195,-0.0049,0.0381,0.8687,-8.30,-12.57,-19.17,-0.70,5.13,41.82
19.025208,-0.0137,0.0195,0.8701,-10.13,-14.28,-22.28,-0.92,4.86,41.40
19.025208,0.0166,-0.0210,0.8857,-11.60,-12.45,-27.40,-1.18,4.60,40.90
19.055698,-0.0146,0.0151,0.9707,-6.04,-16.66,-27.22,-1.40,4.32,40.34
19.055698,-0.0728,0.0811,0.9824,2.81,-25.09,-23.56,-1.45,3.90,39.83
19.085127,-0.1777,0.0732,0.9150,11.41,-29.66,-13.24,-1.32,3.33,39.45
19.085127,-0.1968,-0.0239,0.8320,9.16,-20.02,-2.99,-1.10,2.82,39.31
19.145083,-0.1162,-0.0703,0.8008,3.30,-6.16,1.53,-0.98,2.58,39.30
19.145083,-0.0024,-0.1001,0.8286,-3.85,-7.02,3.97,-0.98,2.48,39.36
19.174956,0.0317,-0.0918,0.8872,-14.83,-22.58,5.55,-1.17,2.18,39.46
19.174956,-0.0342,-0.0747,0.9482,-23.56,-29.05,6.29,-1.56,1.63,39.58
19.205289,-0.0630,-0.0474,1.0186,-27.40,-21.00,8.06,-2.09,1.12,39.73
19.205289,-0.0859,-0.0093,1.0752,-23.13,-5.31,11.72,-2.60,0.87,39.92
19.266064,-0.0283,-0.0366,1.0840,-18.62,9.46,15.56,-3.01,0.93,40.21
19.266064,0.0513,-0.0518,1.0991,-15.93,18.25,12.15,-3.36,1.25,40.48
19.295100,0.1025,-0.0635,1.0977,-10.50,9.52,10.01,-3.61,1.55,40.69
19.295100,0.0820,-0.0786,1.0601,-5.62,-6.04,9.46,-3.76,1.59,40.89
19.326002,-0.0005,-0.1064,0.9937,-6.53,-13.37,11.54,-3.87,1.37,41.11
19.326002,-0.0166,-0.1401,0.9438,-12.21,-6.10,9.46,-4.05,1.17,41.34
19.385930,-0.0103,-0.1157,0.9980,-19.10,0.98,5.55,-4.38,1.15,41.48
19.385930,-0.0142,-0.0679,1.0469,-16.36,-4.82,8.48,-4.74,1.14,41.61
19.415262,-0.0293,-0.0615,1.0249,-13.61,-12.33,16.66,-5.03,0.96,41.88
19.415262,-0.0122,-0.0444,1.0117,-12.88,-9.46,17.94,-5.30,0.76,42.26
19.446042,0.0293,-0.0698,1.0347,-12.27,-9.34,17.58,-5.54,0.62,42.63
19.446042,0.0615,-0.0928,1.0410,-9.95,-17.09,14.16,-5.76,0.37,42.96
19.506577,0.0454,-0.0908,1.0312,-12.51,-18.74,11.78,-5.99,0.02,43.25
19.506577,0.0054,-0.0806,1.0537,-12.39,-7.69,5.49,-6.24,-0.24,43.44
19.535122,-0.0005,-0.1045,1.1025,-10.01,5.43,4.33,-6.47,-0.23,43.52
19.535122,0.0483,-0.1509,1.1084,-10.93,7.93,4.76,-6.67,-0.07,43.61
19.596028,0.0459,-0.1045,1.1392,-10.01,5.37,2.81,-6.89,0.08,43.67
19.596028,-0.0029,-0.0405,1.1670,-2.38,-0.18,8.06,-7.03,0.14,43.76
19.625051,-0.0098,-0.0547,1.1357,7.63,1.10,11.35,-6.97,0.15,43.97
19.625051,0.0332,-0.1304,1.0928,8.79,7.08,6.84,-6.78,0.26,44.15
19.656231,0.0400,-0.1802,1.0698,0.92,5.00,4.94,-6.69,0.41,44.25
19.656231,0.0449,-0.1221,1.0601,-8.79,2.99,3.17,-6.78,0.48,44.33
19.715664,0.0000,-0.0347,1.1128,-8.06,8.67,-4.27,-6.96,0.59,44.31
19.715664,-0.0273,-0.0708,1.1523,-2.75,10.99,-7.32,-7.06,0.79,44.17
19.745259,0.0190,-0.1416,1.1226,-4.46,11.05,-12.88,-7.12,0.99,43.95
19.745259,0.0405,-0.1338,1.0972,-9.03,11.23,-23.50,-7.27,1.18,43.55
19.775643,-0.0308,-0.1113,1.1211,-10.38,6.59,-20.63,-7.48,1.31,43.06
19.775643,-0.0693,-0.0967,1.1494,-4.64,2.08,-8.79,-7.63,1.35,42.78
19.835012,-0.0449,-0.0933,1.1504,-3.60,7.39,-8.18,-7.71,1.43,42.62
19.835012,-0.0176,-0.0894,1.1455,-1.53,10.31,-10.44,-7.76,1.60,42.41
19.865257,-0.0098,-0.0850,1.1699,2.32,0.31,-6.59,-7.76,1.70,42.21
19.865257,-0.0088,-0.0771,1.1484,8.42,-11.84,1.34,-7.65,1.56,42.19
19.895395,-0.0166,-0.1001,1.0933,12.21,-11.96,3.36,-7.43,1.31,42.28
19.895395,-0.0005,-0.1372,1.0425,9.64,-5.43,1.59,-7.21,1.15,42.35
19.985868,0.0229,-0.1455,1.0225,1.89,2.87,-3.23,-7.09,1.13,42.34
19.985868,0.0195,-0.1050,1.0557,-3.17,4.52,-8.18,-7.11,1.21,42.20
20.014937,-0.0176,-0.0537,1.1011,0.79,-1.22,-4.82,-7.15,1.23,42.06
20.014937,-0.0215,-0.0483,1.0967,8.18,-5.92,0.37,-7.05,1.15,42.03
20.014981,-0.0225,-0.0859,1.0498,10.68,-4.58,1.95,-6.86,1.04,42.08
20.014981,-0.0146,-0.1240,1.0420,7.63,-1.46,-1.53,-6.66,0.98,42.09
20.075192,-0.0522,-0.0986,1.0737,4.82,-2.44,-0.55,-6.55,0.94,42.06
20.075192,-0.0601,-0.0762,1.0928,6.65,-2.87,2.99,-6.43,0.89,42.10
20.105171,-0.0439,-0.0908,1.0732,5.43,-0.98,2.62,-6.31,0.86,42.17
20.105171,-0.0122,-0.1069,1.0659,0.79,-0.31,0.43,-6.25,0.86,42.20
20.135114,-0.0098,-0.0918,1.0820,-3.48,-4.70,1.40,-6.28,0.81,42.21
20.135114,-0.0205,-0.0742,1.0815,-4.64,-10.50,3.72,-6.36,0.66,42.28
20.195237,-0.0361,-0.0996,1.0483,-6.65,-10.44,5.25,-6.47,0.45,42.40
20.195237,-0.0396,-0.1074,1.0288,-12.70,-1.46,1.22,-6.67,0.34,42.48
20.225139,-0.0190,-0.0063,1.1274,-12.63,7.32,-4.58,-6.94,0.40,42.45
20.225139,-0.0200,0.0430,1.2290,5.80,5.55,-4.03,-7.03,0.55,42.31
20.255370,0.0029,-0.1201,1.0254,9.70,-5.31,3.54,-6.81,0.55,42.32
20.255370,-0.0215,-0.1357,0.9517,-0.85,-5.31,1.83,-6.73,0.43,42.40
20.315146,-0.0151,-0.0938,0.9966,-4.82,1.10,-1.10,-6.81,0.39,42.41
20.315146,0.0098,-0.0483,1.0518,-2.62,3.23,-3.54,-6.89,0.44,42.35
20.345330,-0.0015,-0.0547,1.0566,1.53,4.03,-3.11,-6.89,0.51,42.28
20.345330,-0.0034,-0.0840,1.0474,2.62,7.87,-4.82,-6.84,0.62,42.19
20.375240,0.0000,-0.1045,1.0483,1.46,7.26,-4.46,-6.80,0.78,42.07
20.375240,-0.0166,-0.0942,1.0645,-0.73,2.75,-1.22,-6.79,0.86,42.01
20.435188,-0.0391,-0.0835,1.0938,-2.62,4.88,-2.38,-6.83,0.93,41.98
20.435188,-0.0635,-0.0649,1.1504,-4.27,9.34,-3.54,-6.90,1.07,41.90
20.465327,-0.0806,-0.0386,1.2212,-2.14,10.07,-1.16,-6.97,1.27,41.84
20.465327,-0.0923,-0.0112,1.2676,4.76,10.50,0.79,-6.94,1.47,41.81
20.495267,-0.0698,-0.0405,1.2656,8.79,13.49,1.77,-6.80,1.72,41.82
20.495267,-0.0405,-0.0786,1.2554,7.75,14.34,1.59,-6.62,2.00,41.83
20.555773,-0.0186,-0.0894,1.2437,4.52,13.67,2.14,-6.49,2.29,41.85
20.555773,-0.0132,-0.1084,1.2188,0.24,8.30,2.81,-6.44,2.52,41.87
20.585237,-0.0146,-0.1602,1.1787,-9.70,1.40,5.13,-6.53,2.62,41.96
20.585237,-0.0137,-0.1201,1.1982,-17.21,3.23,-1.46,-6.82,2.66,42.00
20.615034,-0.0308,-0.1167,1.2119,-21.91,3.97,-8.67,-7.21,2.73,41.88
20.615034,-0.0474,-0.1680,1.1914,-29.05,-0.31,-10.56,-7.73,2.75,41.68
20.675388,-0.0781,-0.1968,1.1724,-38.27,-3.78,-10.68,-8.41,2.68,41.47
20.675388,-0.1338,-0.2305,1.1660,-41.69,-8.54,-3.36,-9.22,2.54,41.33
20.705314,-0.1001,-0.2793,1.1602,-49.26,-16.97,12.02,-10.13,2.33,41.51
20.705314,-0.0576,-0.2607,1.1514,-49.38,-23.13,7.51,-11.11,1.95,41.75
20.735285,-0.0430,-0.2725,1.1831,-53.10,-25.57,10.74,-12.13,1.49,42.01
20.735285,-0.0884,-0.1689,1.2305,-48.46,-20.75,12.39,-13.17,1.07,42.34
20.796263,-0.1929,-0.0938,1.2705,-29.60,0.92,16.66,-13.96,0.92,42.68
20.796263,-0.1890,-0.0664,1.2881,-5.68,35.10,15.08,-14.29,1.37,42.91
20.826427,-0.1001,-0.0835,1.2964,22.83,61.16,15.81,-14.10,2.44,42.97
20.826427,0.0078,-0.1382,1.2617,48.40,60.24,22.22,-13.35,3.75,43.08
20.856292,0.1123,-0.2139,1.1768,65.25,42.60,24.72,-12.17,4.86,43.35
20.856292,0.1650,-0.2759,1.0581,68.79,17.88,20.63,-10.77,5.53,43.70
20.914986,0.1450,-0.2998,0.9795,62.38,-7.14,14.65,-9.42,5.67,44.03
20.914986,0.0278,-0.2788,0.9478,51.09,-20.39,7.51,-8.27,5.39,44.29
20.945082,-0.0698,-0.2236,0.9370,39.31,-12.94,-1.10,-7.36,5.03,44.40
20.945082,-0.0767,-0.1792,0.9517,27.65,7.14,-14.59,-6.72,4.97,44.24
21.005171,-0.0825,-0.1099,0.9854,21.36,18.68,-17.82,-6.27,5.23,43.86
21.005171,-0.0854,-0.0801,0.9844,22.16,16.78,-9.83,-5.86,5.58,43.56
21.035253,-0.0620,-0.0635,0.9683,23.25,14.77,-5.55,-5.42,5.88,43.40
21.035253,-0.0557,-0.0547,0.9609,23.86,13.92,-7.45,-4.96,6.16,43.24
21.064987,-0.0693,-0.0269,0.9722,25.51,6.65,-3.36,-4.48,6.37,43.12
21.064987,-0.0762,-0.0181,0.9478,28.99,-3.05,1.16,-3.93,6.39,43.11
21.125271,-0.0815,-0.0283,0.9102,29.48,-10.68,0.98,-3.34,6.25,43.14
21.125271,-0.1079,-0.0469,0.8799,28.08,-15.44,1.59,-2.76,5.98,43.17
21.155363,-0.1650,-0.0801,0.8472,24.78,-12.33,5.19,-2.22,5.69,43.24
21.155363,-0.2046,-0.1025,0.8481,19.53,0.31,10.93,-1.77,5.56,43.41
21.184992,-0.1938,-0.0889,0.8701,16.24,14.40,18.98,-1.40,5.73,43.71
21.184992,-0.1133,-0.0664,0.8804,15.69,23.32,22.83,-1.04,6.12,44.15
21.245411,-0.0049,-0.0630,0.8491,13.18,23.99,18.74,-0.70,6.61,44.58
21.245411,0.0171,-0.0269,0.8350,11.78,13.49,16.11,-0.42,6.99,44.93
21.275401,0.0122,0.0093,0.8428,15.01,-1.46,16.05,-0.13,7.10,45.26
21.275401,-0.0161,0.0376,0.8477,20.94,-12.63,15.38,0.27,6.93,45.57
21.305415,-0.0454,0.0308,0.8403,25.63,-18.43,14.65,0.77,6.60,45.86
21.305415,-0.0591,0.0117,0.7954,27.10,-15.99,10.68,1.33,6.23,46.10
21.365412,-0.0430,0.0107,0.7407,23.74,-6.90,3.91,1.86,5.99,46.24
21.365412,-0.0488,0.0239,0.7686,24.48,-3.11,4.88,2.33,5.92,46.30
21.395450,-0.0342,0.0420,0.7866,30.82,-8.24,14.22,2.91,5.79,46.50
21.395450,-0.0020,0.0728,0.7544,32.47,-7.51,11.05,3.58,5.60,46.76
21.425463,0.0029,0.1206,0.7495,31.49,-6.10,3.91,4.22,5.46,46.88
21.425463,-0.0146,0.1631,0.7412,33.45,-12.57,3.30,4.88,5.27,46.93
21.486425,-0.0142,0.1392,0.6538,30.27,-15.38,-1.95,5.53,4.97,46.92
21.486425,-0.0469,0.1416,0.6123,23.50,-15.38,-7.39,6.05,4.69,46.77
21.515233,-0.0977,0.1475,0.6055,15.26,-15.01,-8.54,6.42,4.40,46.57
21.515233,-0.1548,0.1631,0.6230,6.59,-9.46,-7.81,6.62,4.17,46.37
21.545076,-0.1802,0.1675,0.6621,-0.61,1.22,-6.41,6.67,4.11,46.22
21.545076,-0.1743,0.1680,0.6865,-6.04,13.00,-5.31,6.59,4.28,46.12
21.605247,-0.1260,0.1675,0.6919,-8.91,19.96,-4.58,6.43,4.64,46.08
21.605247,-0.0767,0.1660,0.6987,-11.35,19.41,-6.71,6.22,5.06,46.03
21.635309,-0.0552,0.1812,0.7261,-11.90,10.44,-9.64,5.98,5.38,45.90
21.635309,-0.0659,0.1909,0.7563,-9.52,-1.83,-12.94,5.74,5.49,45.69
21.665369,-0.1055,0.1875,0.7764,-6.65,-11.17,-15.20,5.56,5.38,45.38
21.665369,-0.1265,0.1763,0.8042,-4.15,-15.38,-15.62,5.43,5.15,45.04
21.725315,-0.1348,0.1641,0.8115,-0.98,-14.28,-14.89,5.35,4.88,44.70
21.725315,-0.1099,0.1030,0.7671,0.55,-13.37,-11.35,5.34,4.64,44.41
21.757027,-0.0469,0.0215,0.7207,-9.09,-11.29,-13.55,5.25,4.43,44.14
21.757027,-0.0332,0.0347,0.7720,-19.96,-13.37,-16.66,4.92,4.23,43.81
21.786049,-0.0381,0.0962,0.8740,-23.50,-21.61,-17.03,4.44,3.92,43.43
21.786049,-0.0532,0.1162,0.9282,-18.01,-28.44,-16.72,4.01,3.44,43.04
21.845988,-0.0952,0.0801,0.9604,-13.24,-28.26,-14.59,3.69,2.89,42.68
21.845988,-0.0918,0.0640,0.9946,-6.53,-20.08,-13.49,3.47,2.43,42.35
21.875141,-0.0601,0.0659,0.9819,3.36,-13.98,-11.47,3.44,2.13,42.08
21.875141,-0.0278,0.0898,0.9150,8.79,-14.40,-7.87,3.57,1.87,41.86
21.905889,-0.0063,0.0894,0.8770,10.07,-16.24,-4.76,3.77,1.58,41.71
21.905889,0.0239,0.0498,0.8540,6.41,-16.30,-3.78,3.94,1.26,41.61
21.966103,0.0273,0.0254,0.8657,1.71,-15.69,-5.80,4.02,0.96,41.48
21.966103,0.0039,0.0005,0.8579,-8.06,-17.21,-6.77,3.96,0.64,41.32
21.995362,-0.0298,0.0264,0.8872,-19.53,-15.75,-7.14,3.67,0.32,41.15
21.995362,-0.0825,0.0581,0.9683,-26.12,-12.15,-3.54,3.20,0.07,41.00
22.025929,-0.0684,0.0610,1.0024,-24.90,-7.81,2.44,2.69,-0.14,40.98
22.025929,-0.0376,0.0542,1.0049,-21.79,-2.26,5.68,2.22,-0.24,41.07
22.085983,0.0000,0.0308,0.9951,-20.69,-1.16,8.79,1.80,-0.27,41.21
22.085983,0.0425,0.0127,0.9976,-19.96,-0.79,8.54,1.38,-0.30,41.39
22.115199,0.0742,0.0293,1.0454,-16.91,-4.88,8.67,1.01,-0.36,41.56
22.115199,0.1069,0.0605,1.0776,-8.24,-8.48,9.16,0.74,-0.50,41.73
22.145247,0.0366,0.0537,1.0254,-2.50,-3.17,9.16,0.64,-0.66,41.91
22.145247,0.0171,-0.0415,0.9600,-2.01,8.18,11.41,0.62,-0.61,42.12
22.205331,0.0713,-0.1177,0.9521,-10.50,17.21,8.85,0.49,-0.35,42.34
22.205331,0.0903,-0.0684,1.0122,-16.60,16.17,6.16,0.20,0.01,42.49
22.235971,0.0835,0.0073,1.0488,-12.94,6.47,6.65,-0.11,0.23,42.63
22.235971,0.0669,0.0396,1.0298,-9.89,3.78,4.88,-0.33,0.31,42.75
22.265144,0.0469,0.0420,1.0034,-6.04,10.93,2.56,-0.49,0.44,42.83
22.265144,0.0728,-0.0186,0.9980,-6.59,18.98,-2.14,-0.62,0.76,42.83
22.325969,0.0889,-0.0005,1.0366,-3.85,16.05,-5.07,-0.73,1.13,42.76
22.325969,0.0581,0.0103,1.0410,-0.18,5.00,-4.09,-0.76,1.34,42.67
22.356201,0.0229,-0.0103,0.9932,3.05,-2.50,0.18,-0.73,1.35,42.63
22.356201,0.0439,-0.0679,0.9692,-2.32,-2.44,-3.36,-0.70,1.29,42.61
22.415958,0.0186,-0.0742,0.9775,-10.07,-4.76,-5.92,-0.83,1.22,42.51
22.415958,-0.0254,-0.0312,1.0029,-15.62,-9.83,-3.11,-1.10,1.08,42.41
22.445376,-0.0332,0.0220,1.0200,-17.40,-11.11,-0.18,-1.44,0.85,42.39
22.445376,-0.0381,0.0337,1.0308,-18.62,-4.46,-1.95,-1.80,0.70,42.37
22.475373,-0.0249,0.0371,1.0405,-16.72,1.22,-2.93,-2.15,0.68,42.31
22.475373,-0.0137,0.0303,1.0332,-13.18,2.26,-0.98,-2.46,0.72,42.27
22.535689,-0.0137,-0.0166,1.0210,-12.15,-1.46,-0.12,-2.70,0.74,42.26
22.535689,-0.0327,-0.0640,1.0161,-15.44,-9.03,5.00,-2.98,0.63,42.31
22.565296,-0.0376,-0.0908,1.0225,-23.13,-9.58,5.25,-3.36,0.43,42.43
22.565296,-0.0527,-0.0630,1.0591,-26.79,-2.14,1.89,-3.87,0.32,42.51
22.595282,-0.0547,-0.0298,1.1172,-25.57,4.09,1.71,-4.39,0.35,42.54
22.595282,-0.0454,-0.0269,1.1333,-22.22,5.98,2.50,-4.87,0.46,42.58
22.656274,-0.0303,-0.0483,1.1318,-19.78,6.59,1.83,-5.28,0.59,42.62
22.656274,-0.0166,-0.0703,1.1353,-16.72,6.16,0.00,-5.66,0.73,42.63
22.685154,-0.0083,-0.0791,1.1411,-15.56,4.46,0.43,-5.97,0.83,42.62
22.685154,-0.0220,-0.0840,1.1357,-14.65,1.16,3.91,-6.28,0.90,42.66
22.716113,-0.0010,-0.0835,1.1284,-13.98,2.20,2.81,-6.56,0.93,42.74
22.716113,0.0054,-0.0757,1.1436,-13.31,4.76,-2.81,-6.84,1.01,42.72
22.776185,0.0010,-0.0693,1.1685,-9.95,1.10,-1.89,-7.08,1.07,42.67
22.776185,-0.0117,-0.0840,1.1709,-6.84,-5.00,-1.59,-7.24,1.03,42.63
22.805317,-0.0415,-0.0889,1.1807,-3.60,-9.03,0.85,-7.34,0.88,42.64
22.805317,-0.0557,-0.0835,1.1753,-0.92,-7.51,1.95,-7.38,0.71,42.70
22.836022,-0.0474,-0.1025,1.1543,-0.61,-3.17,0.73,-7.39,0.62,42.74
22.836022,-0.0454,-0.1147,1.1484,-3.05,-1.46,1.53,-7.43,0.58,42.75
22.895959,-0.0264,-0.1196,1.1499,-5.31,-2.56,5.19,-7.52,0.54,42.84
22.895959,0.0044,-0.0942,1.1553,-5.13,-2.81,4.09,-7.63,0.51,42.93
22.925139,0.0029,-0.0835,1.1465,-0.85,-3.30,3.05,-7.69,0.45,43.01
22.925139,0.0107,-0.0933,1.1128,2.44,-2.87,3.11,-7.67,0.40,43.08
22.956397,0.0200,-0.1152,1.0703,3.48,-1.71,2.81,-7.61,0.36,43.15
22.956397,0.0386,-0.1235,1.0479,2.26,-0.49,1.71,-7.55,0.34,43.20
23.016082,0.0352,-0.1001,1.0776,2.38,-0.79,-2.20,-7.51,0.34,43.19
23.016082,-0.0234,-0.0928,1.1025,6.29,-1.95,0.73,-7.42,0.30,43.17
23.045177,-0.0190,-0.1152,1.0552,6.35,1.53,3.11,-7.28,0.30,43.23
23.045177,0.0195,-0.1216,1.0039,2.26,4.88,0.73,-7.20,0.37,43.26
23.081838,0.0259,-0.1040,0.9863,-0.92,2.93,-1.16,-7.19,0.46,43.24
23.081838,0.0127,-0.0791,1.0029,-1.40,0.37,-2.69,-7.22,0.48,43.20
23.136098,-0.0317,0.0283,1.2002,4.15,-1.04,-2.81,-7.21,0.47,43.14
23.136098,-0.1187,-0.0967,1.1826,16.48,4.46,7.20,-6.92,0.46,43.20
23.165201,0.0156,-0.1460,0.9883,12.88,8.61,0.31,-6.65,0.65,43.27
23.165201,-0.0239,-0.0806,1.0112,8.85,0.12,1.77,-6.43,0.73,43.26
23.195358,-0.0049,-0.0752,0.9985,6.16,-4.33,2.44,-6.28,0.69,43.32
23.195358,-0.0308,-0.0796,0.9980,2.14,-5.25,1.40,-6.20,0.59,43.37
23.255696,-0.0273,-0.0889,0.9966,-2.14,-4.15,3.36,-6.20,0.49,43.43
23.255696,-0.0137,-0.0815,0.9966,-6.47,1.46,-0.79,-6.29,0.47,43.46
23.286011,-0.0415,-0.0825,1.0073,-7.51,5.43,-2.81,-6.43,0.55,43.41
23.286011,-0.0415,-0.0908,1.0210,-8.54,5.68,-1.28,-6.60,0.66,43.36
23.315224,-0.0308,-0.0908,1.0537,-8.79,3.78,1.16,-6.77,0.76,43.35
23.315224,-0.0210,-0.0752,1.0947,-8.42,0.85,1.83,-6.94,0.81,43.39
23.375988,-0.0469,-0.0449,1.1523,-5.80,0.00,1.04,-7.09,0.81,43.41
23.375988,-0.0825,-0.0352,1.1934,-1.16,2.69,1.34,-7.16,0.84,43.43
23.405145,-0.0752,-0.0547,1.2046,1.65,4.76,2.93,-7.14,0.93,43.47
23.405145,-0.0708,-0.0601,1.2256,2.01,3.72,5.31,-7.10,1.03,43.54
23.436005,-0.0723,-0.0767,1.2378,2.99,1.59,8.30,-7.05,1.09,43.68
23.436005,-0.0645,-0.1050,1.2354,-0.37,2.08,10.01,-7.01,1.15,43.86
23.495925,-0.0586,-0.1313,1.2095,-6.90,3.60,10.13,-7.08,1.22,44.06
23.495925,-0.0508,-0.1646,1.1758,-17.33,3.60,12.08,-7.32,1.33,44.27
23.525000,-0.0400,-0.1934,1.1431,-29.42,-0.67,15.08,-7.79,1.40,44.54
23.525000,-0.0146,-0.2295,1.1255,-42.48,-5.19,14.10,-8.51,1.37,44.85
23.555427,0.0708,-0.1343,1.2148,-49.74,-3.36,1.28,-9.46,1.29,45.04
23.555427,0.0317,0.0244,1.3848,-31.13,-6.71,-9.70,-10.31,1.21,44.92
23.615466,-0.0034,0.0176,1.4131,-5.13,-25.57,2.69,-10.64,0.87,44.89
23.615466,-0.0244,-0.0938,1.3081,14.04,-33.63,11.17,-10.52,0.28,45.16
23.646011,-0.0293,-0.1973,1.1982,18.86,-23.50,8.91,-10.17,-0.26,45.46
23.646011,-0.0112,-0.2563,1.1426,14.59,-14.53,6.41,-9.83,-0.60,45.65
23.675169,0.0078,-0.2969,1.1074,4.15,-11.29,7.02,-9.65,-0.82,45.82
23.675169,0.0195,-0.3037,1.0913,-7.87,-7.02,4.52,-9.70,-0.98,45.97
23.736106,0.0449,-0.2554,1.0977,-15.08,-1.34,-3.23,-9.94,-1.06,45.99
23.736106,0.0698,-0.1821,1.1216,-17.21,3.17,-12.88,-10.28,-1.06,45.82
23.766081,0.0449,-0.1309,1.1450,-9.52,4.70,-18.80,-10.54,-1.02,45.48
23.766081,0.0107,-0.1221,1.1465,2.62,1.77,-13.18,-10.60,-1.01,45.15
23.826141,-0.0093,-0.1411,1.1035,16.72,2.87,-7.39,-10.39,-1.00,44.95
23.826141,-0.0103,-0.1562,1.0527,25.76,8.73,-4.64,-9.94,-0.90,44.81
23.856401,0.0044,-0.1553,1.0269,29.11,14.53,-3.17,-9.38,-0.66,44.70
23.856401,0.0352,-0.1426,1.0044,29.17,17.70,-3.85,-8.79,-0.35,44.59
23.885371,0.0552,-0.1021,1.0103,27.40,17.58,-4.94,-8.22,0.00,44.46
23.885371,0.0737,-0.0879,1.0083,26.31,15.20,-5.31,-7.67,0.31,44.32
23.946137,0.0737,-0.0869,1.0156,24.23,15.26,-9.52,-7.17,0.60,44.15
23.946137,0.0562,-0.0771,1.0347,24.11,18.01,-14.04,-6.70,0.91,43.87
23.975334,0.0444,-0.0610,1.0601,27.34,18.49,-12.88,-6.18,1.25,43.56
23.975334,0.0425,-0.0371,1.0723,35.52,14.89,-8.06,-5.55,1.58,43.33
24.006067,0.0332,-0.0469,1.0605,42.30,11.72,-3.48,-4.77,1.83,43.20
24.006067,0.0366,-0.0801,1.0234,48.71,9.03,-2.87,-3.85,2.03,43.13
24.066130,0.0425,-0.0996,0.9834,49.93,4.94,-1.83,-2.86,2.18,43.08
24.066130,0.0532,-0.0952,0.9385,48.22,-1.46,-1.28,-1.87,2.21,43.06
24.102231,0.0503,-0.0859,0.8887,43.70,-8.18,-3.17,-0.96,2.11,43.01
24.102231,0.0259,-0.0732,0.8335,36.44,-10.99,-5.49,-0.16,1.91,42.92
24.126034,-0.0088,-0.0542,0.8086,30.33,-9.46,-7.14,0.51,1.70,42.79
24.126034,-0.0391,-0.0366,0.7925,20.20,-2.75,-7.57,1.01,1.59,42.63
24.186149,-0.0620,-0.0005,0.8257,14.22,1.46,-2.69,1.33,1.59,42.52
24.186149,-0.0605,0.0259,0.8516,11.29,4.82,0.37,1.59,1.65,42.51
24.215261,-0.0190,0.0420,0.8428,10.62,10.01,-2.93,1.80,1.80,42.51
24.215261,-0.0024,0.0684,0.8687,12.21,14.89,-7.81,2.03,2.07,42.41
24.246018,0.0146,0.0732,0.9536,21.67,13.12,-8.91,2.35,2.38,42.24
24.246018,-0.0215,0.0605,1.0156,34.42,-0.31,5.68,2.92,2.52,42.21
24.306011,-0.0122,0.0288,0.9312,43.46,-9.58,14.16,3.73,2.37,42.43
24.306011,-0.0088,0.0308,0.8110,41.69,-6.65,11.47,4.60,2.17,42.68
24.335204,0.0054,0.0522,0.7583,36.62,-2.44,7.57,5.39,2.07,42.85
24.335204,0.0132,0.0659,0.7251,31.74,-2.75,6.53,6.08,2.01,42.98
24.365978,0.0190,0.0693,0.7261,24.29,-6.47,6.16,6.64,1.90,43.10
24.365978,0.0010,0.0815,0.7339,15.69,-8.91,4.88,7.04,1.72,43.19
24.425966,-0.0283,0.1206,0.7773,9.83,-8.97,4.82,7.27,1.54,43.25
24.425966,-0.0586,0.1597,0.8203,9.52,-9.28,8.79,7.46,1.33,43.36
24.455607,-0.0625,0.1685,0.8232,11.05,-8.06,12.21,7.67,1.13,43.55
24.455607,-0.0640,0.1748,0.8086,14.16,-4.15,13.79,7.93,0.96,43.79
24.485472,-0.0254,0.1738,0.7891,16.97,0.00,12.76,8.24,0.88,44.05
24.485472,-0.0015,0.1694,0.7651,18.86,-0.55,11.11,8.60,0.85,44.29
24.545397,0.0059,0.1587,0.7134,16.97,-3.85,9.28,8.96,0.76,44.48
24.545397,-0.0024,0.1479,0.6797,12.33,-4.52,6.47,9.26,0.65,44.62
24.575327,-0.0107,0.1660,0.6714,6.90,-3.11,3.05,9.45,0.55,44.70
24.575327,-0.0112,0.2070,0.6543,1.77,0.00,-1.40,9.54,0.52,44.71
24.605239,-0.0088,0.2188,0.6489,-4.03,1.53,-4.88,9.51,0.56,44.64
24.605239,-0.0332,0.2241,0.6807,-9.83,3.54,-7.02,9.37,0.63,44.53
24.665404,-0.0391,0.1948,0.7231,-13.43,6.65,-7.45,9.13,0.76,44.41
24.665404,-0.0400,0.1621,0.7549,-16.97,8.91,-8.79,8.83,0.94,44.28
24.695316,-0.0435,0.1587,0.7842,-21.85,9.89,-9.77,8.43,1.16,44.13
24.695316,-0.0493,0.1875,0.8267,-22.77,9.70,-8.97,7.98,1.39,43.98
24.725243,-0.0366,0.2061,0.8584,-19.65,11.05,-10.38,7.54,1.63,43.82
24.725243,-0.0093,0.2100,0.8569,-11.05,11.60,-11.78,7.23,1.89,43.63
24.785422,0.0254,0.1631,0.8086,-0.73,8.85,-11.60,7.12,2.13,43.43
24.785422,0.0840,0.1113,0.7368,-0.49,5.13,-15.32,7.12,2.31,43.20
24.815390,0.0737,0.1479,0.7617,-4.52,-0.55,-22.58,7.06,2.42,42.82
24.815390,0.0308,0.1792,0.8125,-4.15,-8.67,-26.12,6.95,2.40,42.32
24.845513,-0.0322,0.1387,0.8408,-2.93,-13.31,-26.25,6.87,2.24,41.76
24.845513,-0.0981,0.0996,0.8706,-9.83,-9.22,-27.28,6.73,2.08,41.20
24.905482,-0.2100,0.0933,0.9038,-13.55,1.40,-22.16,6.48,2.07,40.68
24.905482,-0.2134,0.1006,0.8857,-19.10,18.13,-13.98,6.14,2.32,40.36
24.935369,-0.1450,0.0962,0.8789,-23.44,32.35,-8.67,5.71,2.87,40.22
24.935369,-0.0215,0.0903,0.9419,-26.31,35.64,-9.83,5.20,3.60,40.13
24.965406,0.0518,0.1245,1.0244,-22.28,21.24,-11.84,4.69,4.21,39.97
24.965406,0.0498,0.1348,1.0278,-11.54,-2.01,-11.78,4.34,4.42,39.76
25.026114,0.0044,0.0923,0.9678,-4.94,-15.56,-13.92,4.17,4.24,39.48
25.026114,-0.0273,0.0605,0.9253,-3.17,-17.03,-16.54,4.08,3.93,39.14
25.056789,-0.0322,0.0688,0.9434,-0.24,-11.41,-19.96,4.02,3.68,38.75
25.056789,-0.0146,0.0903,0.9761,4.88,-10.01,-20.26,4.05,3.52,38.32
25.085692,-0.0605,0.1406,0.9697,13.00,-14.22,-9.95,4.21,3.32,37.99
25.085692,-0.1060,0.1245,0.8984,14.28,-13.31,2.50,4.50,3.03,37.90
25.145330,-0.0962,0.0767,0.8931,11.29,-1.28,7.39,4.76,2.87,38.01
25.145330,-0.0083,0.0010,0.9194,4.21,5.43,14.10,4.95,2.94,38.22
25.175379,-0.0054,0.0659,0.9165,5.74,-4.82,7.02,5.03,2.92,38.43
25.175379,0.0010,0.0757,0.8579,-2.62,-7.81,4.21,5.06,2.76,38.52
25.235304,-0.0190,0.1143,0.8926,-7.57,-5.00,2.14,4.95,2.63,38.57
25.235304,-0.0098,0.0962,0.9824,-7.08,-7.39,3.42,4.81,2.51,38.61
25.265393,-0.0210,0.0664,1.0205,-2.93,-17.09,7.81,4.70,2.26,38.69
25.265393,-0.0405,0.0293,0.9761,-2.69,-24.60,14.71,4.67,1.80,38.88
25.295251,-0.0317,-0.0166,0.9321,-13.79,-19.53,15.44,4.52,1.31,39.15
25.295251,-0.0103,-0.0083,0.9790,-26.67,-9.16,9.03,4.10,1.01,39.37
25.355538,0.0049,0.0415,1.0454,-32.53,-6.16,5.74,3.49,0.86,39.50
25.355538,0.0166,0.0957,1.0845,-33.14,-6.53,1.53,2.83,0.73,39.56
25.385204,0.0156,0.0811,1.1069,-30.40,-10.07,0.67,2.19,0.57,39.56
25.385204,0.0132,0.0215,1.0918,-26.79,-15.44,3.72,1.63,0.30,39.59
25.415265,-0.0073,-0.0156,1.0698,-27.83,-16.60,4.27,1.09,-0.03,39.67
25.415265,-0.0337,-0.0166,1.0654,-31.80,-10.99,2.93,0.49,-0.32,39.73
25.475324,-0.0479,0.0171,1.0972,-33.51,-0.61,2.32,-0.18,-0.43,39.78
25.475324,-0.0225,0.0298,1.1367,-31.92,9.64,2.38,-0.83,-0.33,39.83
25.505251,0.0103,0.0020,1.1699,-28.50,14.10,1.34,-1.44,-0.07,39.87
25.505251,0.0049,-0.0142,1.1924,-25.82,11.17,4.64,-1.98,0.19,39.92
25.535306,-0.0332,-0.0088,1.1992,-19.78,7.81,11.47,-2.44,0.37,40.09
25.535306,-0.0469,-0.0156,1.1748,-13.61,13.37,14.83,-2.77,0.58,40.36
25.595364,-0.0312,-0.0103,1.1562,-7.20,25.09,14.40,-2.98,0.97,40.65
25.595364,0.0181,-0.0039,1.1548,0.18,31.37,11.29,-3.04,1.57,40.89
25.625398,0.0527,-0.0073,1.1431,1.16,25.76,10.01,-3.01,2.15,41.08
25.625398,0.0557,0.0386,1.1479,9.52,14.34,5.19,-2.91,2.56,41.23
25.655538,0.0239,0.0342,1.1089,14.34,9.46,2.93,-2.65,2.78,41.30
25.655538,0.0327,-0.0049,1.0386,15.38,14.65,1.83,-2.34,3.01,41.36
25.715267,0.0449,-0.0405,1.0195,11.66,20.02,-6.10,-2.07,3.37,41.31
25.715267,0.0239,-0.0293,1.0269,7.63,18.62,-11.54,-1.89,3.77,41.12
25.745213,-0.0156,0.0254,1.0610,8.12,13.31,-14.53,-1.76,4.09,40.86
25.745213,-0.0479,0.0269,1.0669,10.93,9.16,-17.70,-1.59,4.31,40.53
25.775498,-0.0488,-0.0005,1.0596,7.51,5.98,-23.44,-1.41,4.45,40.11
25.775498,-0.1030,-0.0029,1.0767,6.04,-3.72,-14.40,-1.31,4.48,39.70
25.835379,-0.1274,-0.0337,1.0356,-0.67,-11.35,1.16,-1.26,4.30,39.59
25.835379,-0.0786,-0.0332,0.9951,-8.79,-4.33,-1.46,-1.37,4.13,39.62
25.865712,-0.0581,-0.0098,1.0332,-13.73,-0.12,-9.52,-1.60,4.11,39.49
25.865712,-0.0898,0.0215,1.0747,-14.28,-7.93,-5.07,-1.90,4.04,39.34
25.895213,-0.0869,0.0234,1.0776,-11.96,-13.31,-2.01,-2.16,3.81,39.28
25.895213,-0.0947,0.0015,1.0825,-10.44,-15.93,-1.16,-2.39,3.52,39.25
25.955670,-0.0903,-0.0215,1.0605,-11.29,-16.24,-0.37,-2.60,3.19,39.25
25.955670,-0.0586,-0.0498,1.0493,-14.16,-15.50,-1.22,-2.86,2.87,39.24
25.985253,-0.0610,-0.0645,1.0747,-17.33,-15.81,-2.01,-3.17,2.55,39.22
25.985253,-0.0884,-0.0278,1.1079,-19.53,-13.18,-1.65,-3.55,2.26,39.19
26.015230,-0.1001,0.0093,1.1206,-15.69,-11.17,0.79,-3.91,2.03,39.19
26.015230,-0.0732,-0.0210,1.0972,-11.84,-8.18,2.20,-4.17,1.83,39.24
26.075239,-0.0396,-0.0586,1.0767,-12.45,-3.91,-0.06,-4.41,1.72,39.27
26.075239,-0.0225,-0.0645,1.0850,-14.59,-1.59,-2.01,-4.69,1.66,39.25
26.105354,-0.0244,-0.0259,1.1084,-12.39,-2.87,-3.05,-4.97,1.63,39.20
26.105354,-0.0430,-0.0068,1.1118,-6.71,-6.90,-0.37,-5.16,1.53,39.17
26.143344,-0.0542,-0.0278,1.0859,-1.77,-8.97,1.04,-5.23,1.36,39.19
26.143344,-0.0708,-0.0679,1.0562,-1.59,-7.39,2.20,-5.26,1.20,39.24
26.196210,-0.0635,-0.0869,1.0342,-5.92,-2.81,2.81,-5.33,1.09,39.30
26.196210,-0.0361,-0.0630,1.0474,-8.42,2.08,0.73,-5.49,1.10,39.34
26.226181,-0.0190,-0.0366,1.0791,-6.53,1.77,0.55,-5.64,1.15,39.34
26.226181,-0.0112,-0.0327,1.0811,-2.32,-2.32,2.99,-5.73,1.15,39.38
26.255684,-0.0117,-0.0625,1.0552,-0.43,-3.54,4.09,-5.75,1.09,39.47
26.255684,-0.0088,-0.0591,1.0503,-1.22,-0.12,0.79,-5.77,1.05,39.52
26.316094,-0.0156,-0.0449,1.0552,0.61,1.16,0.12,-5.77,1.07,39.52
26.316094,-0.0137,-0.0596,1.0396,2.62,-0.92,2.69,-5.73,1.08,39.56
26.348334,-0.0107,-0.0811,1.0166,1.40,-1.59,3.66,-5.69,1.05,39.63
26.348334,-0.0195,-0.0576,1.0200,0.12,3.17,0.79,-5.68,1.07,39.68
26.378490,-0.0142,-0.0381,1.0347,2.14,7.81,-1.71,-5.66,1.19,39.66
26.378490,0.0186,-0.0620,1.0635,4.82,4.58,-1.95,-5.58,1.32,39.60
26.435324,0.0122,-0.0659,1.0767,4.58,-2.81,1.46,-5.49,1.34,39.60
26.435324,-0.0078,-0.0620,1.0879,4.46,-5.80,1.34,-5.39,1.24,39.64
26.465384,-0.0439,-0.0654,1.1206,2.44,-1.89,-1.65,-5.32,1.16,39.64
26.465384,-0.0640,-0.0508,1.1768,0.24,-0.43,-0.24,-5.30,1.15,39.62
26.495125,-0.0493,-0.0498,1.2134,-2.08,-0.67,1.16,-5.31,1.14,39.64
26.495125,-0.0620,-0.0361,1.2559,-4.52,3.60,-2.26,-5.38,1.16,39.63
26.556435,-0.0850,-0.0400,1.2812,-6.71,13.67,-8.12,-5.49,1.32,39.51
26.556435,-0.0820,-0.0488,1.2861,-9.28,21.18,-12.21,-5.65,1.68,39.28
26.586317,-0.0884,-0.0635,1.2715,-12.51,20.81,-9.95,-5.88,2.09,39.01
26.586317,-0.0879,-0.0850,1.2583,-14.65,16.30,-5.74,-6.16,2.45,38.83
26.645325,-0.0786,-0.1045,1.2534,-21.18,16.97,-6.65,-6.51,2.77,38.69
26.645325,-0.0869,-0.0889,1.2671,-29.79,21.12,-8.48,-7.04,3.14,38.51
26.675450,-0.1060,-0.0957,1.2803,-27.71,25.57,-8.30,-7.63,3.59,38.28
26.675450,-0.1196,-0.1328,1.2632,-26.37,26.25,-4.33,-8.18,4.10,38.10
26.705445,-0.1011,-0.1851,1.2178,-26.37,25.33,-2.01,-8.71,4.61,37.97
26.705445,-0.0854,-0.2427,1.1597,-26.67,15.69,3.23,-9.24,5.04,37.93
26.765515,-0.0679,-0.2891,1.1045,-32.35,-1.95,11.96,-9.82,5.19,38.07
26.765515,-0.0767,-0.3052,1.0913,-40.47,-16.60,15.62,-10.52,5.03,38.39
26.795196,-0.1172,-0.2852,1.1035,-49.26,-16.78,10.19,-11.41,4.72,38.73
26.795196,-0.1455,-0.2178,1.1533,-48.77,-3.48,-3.48,-12.41,4.53,38.82
26.825360,-0.1216,-0.0972,1.2012,-34.55,8.54,-10.68,-13.26,4.56,38.66
26.825360,-0.2256,-0.0337,1.2725,-13.49,21.00,-11.84,-13.78,4.81,38.34
26.885388,-0.2793,-0.0054,1.2622,17.21,36.38,-3.30,-13.73,5.34,38.07
26.885388,-0.2388,-0.0718,1.1978,36.93,52.73,3.91,-13.18,6.24,37.90
26.915406,-0.1494,-0.1206,1.1514,53.53,58.11,7.32,-12.26,7.39,37.80
26.915406,-0.0205,-0.1729,1.0913,65.00,43.76,9.64,-11.06,8.46,37.78
26.945373,0.0664,-0.2192,1.0215,66.83,15.99,10.93,-9.71,9.08,37.90
26.945373,0.0273,-0.2651,0.9487,61.46,-8.79,11.72,-8.38,9.15,38.12
27.005447,-0.0015,-0.2939,0.8818,48.95,-15.56,6.10,-7.24,8.89,38.35
27.005447,-0.0942,-0.2793,0.8936,33.63,-4.82,0.43,-6.42,8.68,38.42
27.035321,-0.1045,-0.2100,0.9292,20.51,10.31,-2.08,-5.89,8.75,38.40
27.035321,-0.0674,-0.0967,0.9897,15.56,18.86,-3.54,-5.56,9.06,38.31
27.065496,-0.0083,-0.0083,1.0156,19.84,15.56,-4.21,-5.23,9.42,38.21
27.065496,0.0317,0.0264,1.0132,28.63,2.32,-7.02,-4.76,9.60,38.09
27.125370,0.0366,0.0254,0.9795,36.19,-16.11,-11.72,-4.13,9.44,37.91
27.125370,0.0107,0.0039,0.9126,38.21,-35.89,-16.85,-3.41,8.89,37.64
27.159299,-0.0342,-0.0308,0.8447,33.20,-49.44,-23.50,-2.74,8.01,37.25
27.159299,-0.0933,-0.0674,0.7881,23.01,-54.50,-28.14,-2.23,6.94,36.75
27.185339,-0.1138,-0.0586,0.7661,11.72,-50.84,-32.10,-1.96,5.87,36.16
27.185339,-0.1265,-0.0396,0.8154,2.87,-40.47,-34.97,-1.88,4.96,35.47
27.245384,-0.1768,0.0029,0.9263,4.21,-44.43,-16.54,-1.86,4.13,34.95
27.245384,-0.1992,-0.0410,0.9248,8.79,-43.70,4.94,-1.72,3.20,34.87
27.275339,-0.2344,-0.0835,0.9175,8.48,-23.19,15.69,-1.54,2.53,35.08
27.275339,-0.2129,-0.0913,0.9023,8.91,0.92,26.92,-1.36,2.32,35.52
27.305293,-0.1216,-0.0903,0.8687,9.46,19.65,36.74,-1.15,2.55,36.18
27.305293,0.0278,-0.0874,0.8496,8.30,25.94,38.02,-0.95,3.04,36.95
27.365264,0.1309,-0.0527,0.8574,8.91,14.59,33.08,-0.75,3.47,37.67
27.365264,0.1440,0.0078,0.8521,13.37,-8.30,26.12,-0.51,3.51,38.25
27.395309,0.0874,0.0039,0.8281,19.17,-29.48,22.52,-0.15,3.09,38.73
27.395309,0.0278,-0.0483,0.8037,20.26,-34.12,19.41,0.27,2.41,39.13
27.425261,-0.0054,-0.0576,0.7988,16.54,-23.93,15.69,0.64,1.81,39.46
27.425261,-0.0020,0.0000,0.8354,14.95,-11.05,11.90,0.96,1.47,39.72
27.486589,0.0083,0.0791,0.8848,19.90,-7.02,12.39,1.30,1.30,39.95
27.486589,0.0171,0.1211,0.8667,27.40,-9.22,13.85,1.78,1.12,40.21
27.515296,0.0288,0.1216,0.7998,31.68,-9.40,11.05,2.38,0.91,40.46
27.515296,0.0449,0.1006,0.7295,30.52,-8.61,4.70,3.02,0.73,40.60
27.545353,0.0420,0.1055,0.6914,26.31,-11.23,-1.46,3.58,0.54,40.61
27.545353,0.0171,0.1313,0.6675,22.22,-17.40,-5.25,4.07,0.26,40.51
27.605296,-0.0386,0.1431,0.6748,17.40,-20.51,-7.14,4.47,-0.12,40.35
27.605296,-0.0928,0.1680,0.6841,11.41,-15.32,-7.81,4.75,-0.47,40.16
27.635629,-0.1416,0.1714,0.6963,6.71,-4.82,-5.07,4.93,-0.65,40.00
27.635629,-0.1343,0.1431,0.6914,0.00,8.48,-1.40,5.00,-0.60,39.94
27.666148,-0.0977,0.1450,0.6987,-7.02,19.17,1.40,4.93,-0.31,39.98
27.666148,-0.0537,0.1748,0.7100,-11.78,22.28,1.83,4.73,0.12,40.07
27.726227,-0.0166,0.1968,0.7354,-13.18,18.49,-2.08,4.48,0.53,40.11
27.726227,-0.0210,0.2109,0.7661,-12.27,9.03,-7.08,4.21,0.81,40.05
27.757799,-0.0625,0.2168,0.7983,-6.35,-2.75,-7.02,4.02,0.88,39.90
27.757799,-0.0679,0.1675,0.7739,-2.81,-14.47,-2.87,3.95,0.71,39.78
27.786178,-0.0928,0.1035,0.6792,-8.12,-16.85,-1.28,3.85,0.38,39.72
27.786178,-0.1172,0.0420,0.6240,-23.38,-4.58,-2.14,3.54,0.16,39.66
27.846110,-0.1035,0.0166,0.6724,-39.06,12.21,-1.95,2.90,0.25,39.62
27.846110,-0.0459,0.0000,0.7837,-49.87,24.84,-1.16,2.01,0.65,39.62
27.875276,0.0063,0.0254,0.8960,-54.50,26.55,-1.22,0.94,1.18,39.63
27.875276,0.0498,0.0781,0.9609,-49.99,24.23,-6.23,-0.12,1.69,39.58
27.905999,0.0967,0.0835,1.0059,-38.64,20.69,-15.75,-1.01,2.15,39.36
27.905999,0.1152,0.0645,1.0400,-22.89,15.20,-23.68,-1.63,2.51,38.96
27.966216,0.0845,0.0581,1.0352,-6.29,12.45,-27.10,-1.93,2.78,38.44
27.966216,0.0400,0.0796,0.9619,10.80,12.94,-21.55,-1.90,3.03,37.94
27.995356,-0.0059,0.0435,0.8730,23.80,13.55,-9.34,-1.53,3.28,37.63
27.995356,-0.0386,-0.0723,0.8252,22.58,20.87,-0.18,-1.05,3.63,37.56
28.056448,0.0156,-0.1074,0.7881,11.66,32.35,-4.52,-0.70,4.17,37.53
28.056448,0.0327,-0.0708,0.8418,5.37,29.24,-10.01,-0.56,4.83,37.39
28.085334,-0.0083,-0.0044,0.8867,1.83,13.55,-6.77,-0.51,5.25,37.21
28.085334,-0.0576,0.0156,0.9272,1.59,2.87,-3.17,-0.49,5.39,37.12
28.116240,-0.0957,-0.0254,0.9453,1.59,2.87,-2.81,-0.45,5.44,37.07
28.116240,-0.1206,-0.0474,0.9585,2.01,7.45,-2.08,-0.41,5.54,37.02
28.175342,-0.0669,-0.0654,0.9741,0.43,13.79,-4.39,-0.39,5.77,36.96
28.175342,-0.0361,-0.0361,1.0322,0.18,9.16,-4.70,-0.40,6.03,36.86
28.206216,-0.0537,-0.0186,1.0688,1.04,-3.85,-2.62,-0.39,6.07,36.80
28.206216,-0.1108,0.0098,1.0898,3.85,-13.12,-3.30,-0.36,5.89,36.74
28.236227,-0.1318,0.0483,1.0972,11.90,-19.90,-2.93,-0.20,5.56,36.67
28.236227,-0.1538,0.0439,1.0713,21.91,-21.73,-2.01,0.14,5.13,36.61
28.296156,-0.1577,0.0239,1.0151,28.75,-18.01,0.73,0.65,4.73,36.59
28.296156,-0.1372,-0.0503,0.9624,27.71,-14.59,2.81,1.24,4.41,36.61
28.325326,-0.1099,-0.0576,0.9175,20.75,-17.09,8.67,1.73,4.10,36.71
28.325326,-0.0786,-0.0327,0.9219,15.01,-21.79,13.18,2.09,3.69,36.93
28.358419,-0.0498,-0.0654,0.9058,7.75,-21.06,12.02,2.33,3.24,37.15
28.358419,-0.0435,-0.0278,0.9014,-0.31,-15.32,12.57,2.41,2.85,37.37
28.416209,0.0371,-0.0215,0.8896,-7.32,-4.94,7.26,2.33,2.64,37.57
28.416209,0.1108,-0.0229,0.9253,-13.06,-2.93,-0.79,2.13,2.59,37.62
28.445392,0.0864,0.0283,1.0229,-14.04,-14.47,-1.10,1.83,2.42,37.57
28.445392,0.0039,0.0479,1.0723,-4.09,-29.24,10.99,1.64,1.97,37.64
28.476493,0.0000,-0.0298,1.0044,3.11,-31.56,18.25,1.67,1.31,37.93
28.476493,0.0322,-0.0547,0.9736,-5.19,-20.20,10.38,1.66,0.78,38.20
28.536189,0.0254,-0.0020,1.0371,-12.70,-17.33,8.12,1.46,0.43,38.34
28.536189,0.0029,0.0371,1.0874,-14.59,-25.33,14.34,1.18,-0.01,38.55
28.565421,-0.0239,0.0459,1.0977,-16.24,-25.88,16.42,0.86,-0.55,38.84
28.565421,-0.0615,0.0415,1.1138,-17.15,-18.43,17.33,0.52,-1.01,39.17
28.595372,-0.0801,0.0347,1.1177,-18.31,-5.74,17.27,0.15,-1.26,39.51
28.595372,-0.0581,0.0264,1.1216,-18.31,6.47,16.05,-0.24,-1.24,39.84
28.656423,-0.0112,0.0200,1.1270,-17.27,5.92,19.78,-0.60,-1.10,40.20
28.656423,0.0645,0.0156,1.1309,-19.71,-1.22,20.75,-0.99,-1.06,40.62
28.685300,0.0698,0.0186,1.1470,-20.45,-6.04,20.20,-1.41,-1.15,41.02
28.685300,0.0508,0.0195,1.1445,-19.84,-3.23,18.49,-1.82,-1.25,41.42
28.716183,0.0024,0.0010,1.1313,-19.29,8.06,16.42,-2.22,-1.20,41.76
28.716183,0.0210,-0.0010,1.1206,-20.20,19.96,11.96,-2.63,-0.90,42.04
28.776234,0.0581,0.0015,1.1421,-19.04,21.12,8.24,-3.03,-0.46,42.23
28.776234,0.0781,-0.0264,1.1499,-16.60,13.37,5.07,-3.38,-0.10,42.35
28.806227,0.0342,-0.0464,1.1421,-17.46,3.05,6.71,-3.72,0.05,42.46
28.806227,-0.0381,-0.0283,1.1411,-17.46,-0.92,9.83,-4.08,0.07,42.63
28.835364,-0.0903,-0.0098,1.1294,-15.81,6.47,9.52,-4.42,0.12,42.83
28.835364,-0.0820,-0.0332,1.1201,-13.49,20.14,6.10,-4.71,0.40,42.97
28.895309,-0.0361,-0.0479,1.1265,-11.17,23.62,3.97,-4.96,0.86,43.04
28.895309,-0.0132,-0.0410,1.1499,-8.30,16.97,4.58,-5.16,1.29,43.10
28.926100,0.0044,-0.0278,1.1548,-5.43,5.62,8.36,-5.30,1.51,43.22
28.926100,-0.0015,-0.0361,1.1670,-3.85,-2.26,9.52,-5.38,1.55,43.40
28.956413,-0.0171,-0.0435,1.1821,-4.27,-5.86,10.93,-5.46,1.47,43.62
28.956413,-0.0259,0.1860,1.8979,13.67,-11.41,11.47,-5.50,1.37,43.83
29.016150,0.0493,0.0312,1.4961,25.33,-28.20,44.25,-4.75,0.64,44.58
29.016150,0.0513,-0.2778,0.8521,42.42,12.21,2.62,-3.96,0.57,45.12
29.046605,0.0020,-0.0361,1.0259,19.78,9.03,-7.45,-3.41,0.85,44.91
29.046605,-0.0103,-0.0229,0.9878,16.54,2.44,0.49,-3.04,0.94,44.89
29.075322,-0.0249,-0.0073,0.9966,11.17,-0.24,-3.78,-2.77,0.96,44.85
29.075322,-0.0244,-0.0020,1.0054,5.80,-2.56,-1.95,-2.60,0.93,44.79
29.136083,-0.0083,-0.0024,0.9932,0.49,-2.69,-1.10,-2.55,0.87,44.76
29.136083,-0.0049,-0.0015,0.9902,-2.50,-2.44,0.24,-2.57,0.82,44.76
29.165343,0.0054,-0.0063,1.0029,-5.31,0.06,-0.79,-2.65,0.80,44.75
29.165343,0.0020,-0.0122,1.0020,-5.37,3.23,-1.10,-2.76,0.84,44.74
29.195443,-0.0176,-0.0200,1.0034,-4.88,2.44,-0.18,-2.86,0.90,44.72
29.195443,-0.0107,-0.0264,1.0078,-3.91,0.24,1.10,-2.94,0.92,44.74
29.256500,-0.0098,-0.0366,1.0171,-2.75,-0.79,0.73,-3.01,0.92,44.75
29.256500,-0.0010,-0.0347,1.0156,0.00,0.00,0.79,-3.04,0.91,44.77
29.285349,-0.0059,-0.0288,1.0181,1.95,1.40,0.43,-3.02,0.93,44.79
29.285349,-0.0103,-0.0234,1.0088,2.20,0.73,0.43,-2.97,0.96,44.80
29.316123,-0.0083,-0.0205,1.0044,1.22,-0.24,-0.06,-2.93,0.96,44.80
29.316123,-0.0039,-0.0234,1.0103,0.55,-0.06,-0.79,-2.92,0.96,44.80
29.376103,-0.0044,-0.0225,1.0093,-0.06,0.06,-1.95,-2.91,0.96,44.77
29.376103,-0.0137,-0.0278,1.0156,-2.32,-1.28,-3.42,-2.93,0.95,44.71
29.405324,-0.0005,-0.0439,1.0156,-9.34,-0.73,-7.57,-3.04,0.92,44.61
29.405324,-0.0493,-0.0854,1.0068,-24.66,4.70,-12.63,-3.38,0.94,44.40
29.466257,-0.1333,-0.0273,1.1284,-34.91,15.38,-15.62,-4.01,1.14,44.10
29.466257,-0.1001,0.0854,1.3159,-28.26,18.92,-14.40,-4.66,1.49,43.79
29.495345,-0.0581,0.1348,1.4292,-10.31,14.16,-13.79,-5.05,1.81,43.49
29.495345,-0.0742,0.0864,1.4536,8.67,4.03,-9.52,-5.07,1.99,43.23
29.526163,-0.0791,0.0151,1.4194,18.62,-4.64,-4.46,-4.77,1.97,43.10
29.526163,-0.0981,-0.0552,1.3545,17.46,-7.39,0.00,-4.40,1.83,43.07
29.586179,-0.0952,-0.1113,1.2876,4.58,-3.66,0.12,-4.17,1.71,43.09
29.586179,-0.1245,-0.1313,1.2661,-9.89,5.55,-2.08,-4.23,1.73,43.07
29.615322,-0.1230,-0.1152,1.2769,-21.79,12.82,-2.99,-4.56,1.93,43.00
29.615322,-0.0801,-0.1274,1.2368,-31.19,13.37,-2.14,-5.10,2.20,42.93
29.645429,-0.0425,-0.1133,1.1807,-36.50,10.99,-3.85,-5.80,2.44,42.86
29.645429,0.0000,-0.0674,1.1948,-30.64,1.04,-3.60,-6.49,2.58,42.78
29.705509,0.0571,-0.1143,1.1699,-17.64,-17.94,-1.22,-6.95,2.40,42.74
29.705509,0.0039,-0.1528,1.1250,-12.57,-33.08,3.78,-7.24,1.87,42.81
29.735413,-0.0801,-0.1660,1.0674,-11.23,-28.08,6.16,-7.47,1.23,43.00
29.735413,-0.1113,-0.1616,1.0264,-13.00,-0.12,-0.92,-7.71,0.95,43.09
29.765440,-0.0918,-0.1279,1.0352,-14.89,31.07,-9.83,-7.99,1.29,42.94
29.765440,-0.0234,-0.0957,1.0723,-12.88,46.33,-15.75,-8.28,2.07,42.58
29.825499,0.0356,-0.0811,1.1260,-5.00,40.34,-15.01,-8.47,2.92,42.16
29.825499,0.0845,-0.0820,1.1255,3.05,18.92,-13.37,-8.50,3.49,41.81
29.855682,0.0811,-0.0854,1.1216,11.54,-3.11,-13.12,-8.36,3.60,41.53
29.855682,0.0146,-0.0806,1.1211,18.92,-22.40,-12.33,-8.06,3.29,41.30
29.885358,-0.0698,-0.0835,1.0820,25.21,-25.02,-10.62,-7.62,2.76,41.14
29.885358,-0.0840,-0.0649,1.0444,28.38,-13.43,-12.15,-7.08,2.35,40.95
29.945529,-0.0791,-0.0835,1.0161,28.08,-2.20,-11.23,-6.51,2.19,40.73
29.945529,-0.0581,-0.0947,0.9795,23.86,4.70,-6.53,-5.99,2.21,40.55
29.975901,-0.0249,-0.1118,0.9556,15.93,12.76,-6.90,-5.59,2.38,40.41
29.975901,-0.0342,-0.0879,0.9917,7.87,18.37,-7.32,-5.37,2.70,40.24
30.005425,-0.0288,-0.0469,1.0498,5.25,19.04,-4.46,-5.26,3.07,40.10
30.005425,-0.0337,-0.0117,1.0903,8.73,17.70,-0.55,-5.13,3.43,40.03
30.065371,-0.0381,-0.0088,1.0923,15.81,18.19,2.69,-4.87,3.79,40.03
30.065371,-0.0527,-0.0234,1.0518,21.97,21.85,5.19,-4.48,4.20,40.09
30.095356,-0.0464,-0.0444,0.9814,23.44,26.86,8.00,-4.00,4.69,40.20
30.095356,-0.0264,-0.0547,0.9360,22.89,32.41,8.18,-3.53,5.30,40.35
30.125383,0.0088,-0.0610,0.9194,24.17,32.65,9.09,-3.05,5.97,40.50
30.125383,0.0425,-0.0718,0.8931,25.82,25.21,8.97,-2.53,6.57,40.67
30.186849,0.0186,-0.0630,0.8462,25.63,11.35,11.41,-1.99,6.94,40.87
30.186849,-0.0332,-0.0527,0.7861,25.15,0.00,14.40,-1.45,7.03,41.14
30.215846,-0.0791,-0.0791,0.7510,20.39,1.04,12.39,-0.96,7.02,41.41
30.215846,-0.1270,-0.0845,0.7627,13.00,9.16,11.84,-0.60,7.12,41.65
30.248594,-0.1084,-0.0781,0.7886,6.16,15.87,11.41,-0.38,7.38,41.90
30.248594,-0.0674,-0.0132,0.8271,2.14,14.16,8.79,-0.29,7.70,42.11
30.305462,-0.0381,0.0054,0.8496,3.78,4.88,5.31,-0.21,7.89,42.25
30.305462,-0.0703,-0.0234,0.8784,5.80,-6.04,8.18,-0.10,7.87,42.38
30.335376,-0.0991,-0.0801,0.8999,7.87,-11.60,14.16,0.07,7.66,42.60
30.335376,-0.0718,-0.0806,0.9092,4.64,-7.20,11.66,0.23,7.46,42.88
30.366556,-0.0527,-0.0137,0.9429,4.76,-1.95,3.60,0.32,7.37,43.03
30.366556,-0.0503,0.0508,0.9780,10.31,-3.23,1.59,0.47,7.33,43.06
30.425380,-0.0352,0.0356,0.9575,20.20,-10.07,7.51,0.80,7.19,43.15
30.425380,-0.0210,-0.0215,0.9390,23.62,-9.95,8.91,1.27,6.98,43.31
30.455739,-0.0498,-0.0020,0.9766,26.18,-10.13,17.52,1.79,6.76,43.57
30.455739,-0.0415,0.0181,0.9478,28.38,-2.38,16.97,2.38,6.59,43.93
30.485358,-0.0400,0.0542,0.9365,31.80,7.08,10.38,3.01,6.64,44.20
30.485358,-0.0464,0.0830,0.9004,37.29,8.61,8.91,3.72,6.79,44.41
30.545415,-0.0659,0.0781,0.8394,40.34,8.18,7.08,4.53,6.94,44.59
30.545415,-0.0801,0.0889,0.7686,38.02,11.72,0.92,5.33,7.12,44.69
30.575533,-0.1045,0.1128,0.7275,34.00,10.44,-3.11,6.04,7.36,44.69
30.575533,-0.1353,0.1362,0.6812,30.21,4.52,-3.97,6.68,7.52,44.64
30.605383,-0.1802,0.1382,0.6382,23.13,0.92,-4.27,7.21,7.58,44.56
30.605383,-0.2305,0.1416,0.6299,14.40,2.69,-3.91,7.57,7.62,44.48
30.665494,-0.2563,0.1699,0.6250,5.62,8.79,-2.44,7.76,7.74,44.44
30.665494,-0.2642,0.2085,0.6528,-0.92,14.47,0.18,7.79,7.98,44.46
30.696259,-0.2412,0.2080,0.6675,-6.35,18.62,1.71,7.73,8.31,44.54
30.696259,-0.2222,0.2314,0.6943,-10.31,20.39,2.56,7.58,8.70,44.65
30.725431,-0.2100,0.2437,0.7192,-10.50,18.98,3.17,7.38,9.08,44.77
30.725431,-0.1851,0.2383,0.7144,-10.80,14.95,2.38,7.18,9.41,44.88
30.786320,-0.1777,0.2461,0.7148,-10.68,8.67,0.55,6.97,9.64,44.95
30.786320,-0.1636,0.2446,0.7148,-9.70,-0.37,0.67,6.78,9.72,44.97
30.816196,-0.1729,0.2036,0.7085,-9.64,-8.91,1.89,6.58,9.62,44.98
30.816196,-0.1562,0.1582,0.6904,-9.03,-13.12,4.52,6.41,9.38,45.02
30.876181,-0.1294,0.1372,0.6895,-17.15,-9.03,3.72,6.15,9.14,45.08
30.876181,-0.1157,0.1499,0.7119,-24.90,-1.28,0.79,5.73,9.04,45.10
30.905373,-0.0962,0.1685,0.7656,-26.06,2.93,1.89,5.22,9.06,45.13
30.905373,-0.0522,0.1514,0.7754,-27.47,6.04,0.73,4.70,9.16,45.18
30.936128,-0.0269,0.1553,0.7930,-29.42,7.81,-6.16,4.12,9.31,45.14
30.936128,-0.0454,0.1445,0.8306,-26.92,6.29,-9.77,3.53,9.47,44.99
30.996323,-0.0537,0.1167,0.8301,-24.96,1.22,-8.85,2.99,9.56,44.80
30.996323,-0.1128,0.0762,0.8369,-27.10,-0.06,-5.80,2.44,9.57,44.65
31.025463,-0.2100,0.0469,0.8735,-30.58,8.79,-1.46,1.86,9.65,44.59
31.025463,-0.1821,0.0415,0.9390,-31.74,24.11,-2.99,1.23,9.99,44.58
31.057009,-0.0850,0.0430,0.9995,-28.81,28.08,-8.18,0.60,10.55,44.48
31.057009,0.0093,0.0649,1.0273,-18.19,16.05,-11.96,0.09,11.02,44.29
31.116330,0.0327,0.0132,1.0161,-5.68,-2.99,-15.38,-0.18,11.14,44.02
31.116330,-0.0376,-0.0464,0.9844,1.89,-15.81,-19.53,-0.27,10.94,43.65
31.145404,-0.1426,-0.0796,0.9741,4.03,-18.31,-19.41,-0.27,10.59,43.25
31.145404,-0.2031,-0.0776,0.9785,5.07,-14.53,-17.94,-0.24,10.27,42.86
31.176254,-0.1782,-0.0430,0.9751,6.41,-11.05,-17.58,-0.19,10.03,42.50
31.176254,-0.1694,-0.0557,0.9424,7.32,-14.34,-13.31,-0.09,9.79,42.18
31.235547,-0.1855,-0.1147,0.8931,2.87,-13.06,-9.95,-0.02,9.50,41.95
31.235547,-0.1797,-0.1450,0.8735,-5.98,-5.07,-12.21,-0.09,9.33,41.73
31.267873,-0.1436,-0.1426,0.9141,-13.92,-1.46,-16.91,-0.34,9.29,41.43
31.267873,-0.1289,-0.0791,0.9722,-18.74,-8.06,-17.33,-0.73,9.21,41.07
31.296148,-0.1250,-0.0366,1.0059,-16.91,-13.73,-16.91,-1.15,8.98,40.73
31.296148,-0.1338,-0.0483,0.9927,-14.83,-17.46,-13.98,-1.49,8.66,40.41
31.356581,-0.1279,-0.0576,0.9658,-16.48,-16.97,-13.73,-1.85,8.31,40.14
31.356581,-0.1328,-0.0493,0.9966,-17.52,-16.54,-16.36,-2.23,7.98,39.84
31.385363,-0.1753,-0.0342,1.0195,-14.10,-19.47,-9.34,-2.58,7.61,39.58
31.385363,-0.1392,-0.0488,0.9854,-10.62,-13.31,-4.58,-2.83,7.26,39.46
31.416324,-0.0293,-0.0640,0.9614,-12.88,-3.78,-10.13,-3.07,7.11,39.33
31.416324,0.0400,-0.0903,0.9741,-17.70,-13.12,-15.99,-3.41,6.97,39.06
31.476685,-0.0386,-0.0684,1.0078,-19.17,-35.95,-8.73,-3.81,6.46,38.81
31.476685,-0.1040,-0.0615,1.0020,-20.81,-46.02,-2.75,-4.21,5.59,38.75
31.505438,-0.1660,-0.0410,1.0156,-22.34,-41.93,0.67,-4.65,4.71,38.78
31.505438,-0.1460,-0.0488,1.0459,-21.42,-40.95,7.26,-5.08,3.90,38.91
31.535907,-0.0747,-0.0469,1.0737,-25.15,-43.33,9.40,-5.54,3.07,39.14
31.535907,-0.0366,-0.0137,1.1211,-21.97,-47.24,12.76,-6.01,2.18,39.43
31.596242,-0.0239,-0.0332,1.1191,-18.19,-44.31,16.54,-6.41,1.28,39.81
31.596242,0.0161,-0.0737,1.1055,-16.72,-34.06,16.72,-6.74,0.53,40.22
31.625411,0.0581,-0.1040,1.1172,-18.74,-25.88,13.24,-7.10,-0.02,40.58
31.625411,0.0605,-0.1294,1.1572,-20.63,-25.45,7.81,-7.50,-0.49,40.83
31.655746,0.0078,-0.1729,1.1631,-21.48,-26.00,6.35,-7.93,-1.00,41.02
31.655746,-0.0176,-0.2070,1.1538,-27.40,-20.39,5.68,-8.42,-1.45,41.20
31.715453,-0.0566,-0.1958,1.1646,-34.18,-7.87,2.99,-9.05,-1.72,41.33
31.715453,-0.0591,-0.1265,1.2158,-33.20,5.98,1.40,-9.74,-1.72,41.36
31.746173,-0.0273,-0.0566,1.2549,-23.01,15.08,-0.92,-10.31,-1.49,41.34
31.746173,-0.0137,-0.0449,1.2534,-5.86,19.78,-2.08,-10.60,-1.15,41.24
31.776323,0.0254,-0.1514,1.1836,8.06,20.75,-2.56,-10.55,-0.75,41.14
31.776323,0.0376,-0.2632,1.0859,5.62,20.39,-3.91,-10.39,-0.35,41.00
31.836218,0.0186,-0.2495,1.0742,1.89,14.47,2.01,-10.32,-0.01,40.93
31.836218,0.0376,-0.1958,1.0942,0.00,12.70,1.71,-10.31,0.27,40.93
31.865388,0.0288,-0.1436,1.1113,3.17,11.60,0.73,-10.28,0.51,40.92
31.865388,0.0518,-0.1719,1.0703,7.20,13.49,-3.42,-10.16,0.75,40.86
31.896102,0.0615,-0.1919,1.0376,4.03,13.18,-9.52,-10.05,1.00,40.69
31.896102,0.0254,-0.1650,1.0513,4.15,10.93,-11.41,-9.98,1.21,40.44
31.955776,0.0000,-0.1260,1.0894,8.73,7.39,-9.46,-9.85,1.36,40.20
31.955776,-0.0361,-0.1079,1.0938,16.05,3.30,-4.82,-9.60,1.44,40.04
31.986198,-0.0444,-0.1455,1.0518,18.92,0.43,1.28,-9.24,1.47,40.01
31.986198,-0.0264,-0.1733,1.0068,15.08,2.32,-1.04,-8.89,1.50,40.02
32.015415,-0.0005,-0.1782,1.0098,6.53,2.14,-7.08,-8.68,1.54,39.93
32.015415,-0.0239,-0.1304,1.0518,3.30,-5.00,-4.15,-8.60,1.51,39.81
32.076449,-0.0215,-0.1099,1.0703,4.27,-11.72,-1.22,-8.53,1.32,39.79
32.076449,-0.0396,-0.1123,1.0581,4.39,-12.45,-1.59,-8.43,1.07,39.80
32.105524,-0.0566,-0.1250,1.0493,3.48,-10.44,-2.38,-8.35,0.83,39.78
32.105524,-0.0571,-0.1406,1.0415,-0.55,-10.31,0.12,-8.32,0.64,39.78
32.136343,-0.0352,-0.1396,1.0327,-4.82,-11.29,1.34,-8.38,0.42,39.83
32.136343,-0.0327,-0.1167,1.0474,-8.73,-9.09,1.46,-8.53,0.21,39.89
32.196421,0.0132,-0.0483,1.1025,-5.13,-3.97,-1.65,-8.67,0.10,39.90
32.196421,0.0278,-0.0620,1.1060,1.83,-6.29,-0.24,-8.70,0.00,39.89
32.225420,0.0073,-0.1108,1.0698,3.42,-8.24,1.10,-8.63,-0.15,39.92
32.225420,-0.0181,-0.1392,1.0347,0.79,-3.78,0.31,-8.59,-0.27,39.96
32.286343,-0.0020,-0.1133,1.0337,-1.77,1.16,-1.40,-8.60,-0.29,39.95
32.286343,-0.0532,0.1938,1.3877,3.23,5.92,-5.49,-8.62,-0.23,39.87
32.318990,-0.0249,-0.1299,1.1123,18.37,7.20,6.59,-8.35,-0.10,39.89
32.318990,0.0371,-0.1802,0.9390,13.61,8.73,-0.31,-8.01,0.05,39.96
32.346416,0.0000,-0.0918,1.0220,12.08,5.92,-0.43,-7.77,0.21,39.90
32.346416,-0.0044,-0.1104,0.9741,12.08,2.81,0.12,-7.52,0.29,39.91
32.406341,0.0015,-0.0952,0.9937,11.35,5.86,-1.71,-7.28,0.38,39.88
32.406341,-0.0093,-0.0811,1.0044,9.89,4.82,-0.43,-7.06,0.49,39.84
32.435619,-0.0083,-0.0820,0.9956,9.09,3.05,1.53,-6.87,0.57,39.86
32.435619,-0.0137,-0.0757,0.9902,8.36,1.10,2.44,-6.70,0.62,39.89
32.465628,-0.0029,-0.0786,0.9941,8.06,0.67,2.38,-6.53,0.64,39.94
32.465628,0.0034,-0.0771,1.0020,6.35,2.81,2.32,-6.38,0.68,39.98
32.525553,0.0020,-0.0732,1.0044,6.23,6.10,2.32,-6.26,0.77,40.03
32.525553,-0.0098,-0.0771,1.0024,5.37,6.47,2.93,-6.14,0.91,40.07
32.555857,-0.0200,-0.0757,1.0103,2.75,3.42,3.42,-6.06,1.02,40.13
32.555857,-0.0176,-0.0732,1.0088,0.85,0.73,3.54,-6.02,1.06,40.20
32.586609,-0.0127,-0.0742,1.0088,-0.06,-0.67,3.48,-6.02,1.07,40.27
32.586609,-0.0093,-0.0864,1.0093,0.31,-1.22,3.17,-6.02,1.05,40.34
32.646338,-0.0049,-0.1001,1.0308,3.42,-1.16,0.24,-5.98,1.03,40.38
32.646338,-0.0044,-0.0864,1.0254,8.48,-0.98,-0.06,-5.86,1.01,40.38
32.675516,-0.0020,-0.0698,0.9985,9.89,1.83,-0.37,-5.66,1.02,40.38
32.675516,-0.0122,-0.0615,1.0000,7.63,2.62,-1.40,-5.48,1.07,40.36
32.705631,-0.0239,-0.0659,1.0132,4.64,-0.43,-2.44,-5.36,1.09,40.32
32.705631,-0.0220,-0.0796,1.0273,1.40,-4.09,-3.91,-5.30,1.04,40.26
32.765647,-0.0405,-0.1172,1.0283,-9.28,-2.14,-4.82,-5.36,0.96,40.18
32.765647,-0.0957,-0.0620,1.1108,-24.35,8.97,-8.85,-5.73,1.03,40.04
32.795636,-0.0859,0.0688,1.3057,-16.36,9.40,-5.13,-6.17,1.21,39.87
32.795636,-0.0322,0.0674,1.3403,1.59,3.78,0.79,-6.30,1.35,39.83
32.825636,0.0039,-0.0054,1.2773,11.84,-0.67,1.65,-6.14,1.38,39.86
32.825636,-0.0010,-0.0498,1.2612,15.32,-7.02,3.23,-5.86,1.31,39.91
32.885627,-0.0132,-0.0820,1.2402,14.22,-13.43,6.77,-5.55,1.10,40.03
32.885627,-0.0405,-0.1519,1.1987,7.69,-17.03,10.68,-5.32,0.80,40.23
32.915547,-0.0859,-0.1494,1.2144,-10.19,-9.77,9.64,-5.35,0.54,40.47
32.915547,-0.1304,-0.0728,1.2876,-19.47,3.11,7.32,-5.67,0.49,40.63
32.945577,-0.1284,-0.0337,1.3281,-18.80,10.99,8.36,-6.06,0.67,40.78
32.945577,-0.1099,-0.0693,1.3218,-14.59,12.82,9.77,-6.40,0.92,40.94
33.005561,-0.1133,-0.1001,1.3193,-14.22,9.83,13.85,-6.67,1.18,41.15
33.005561,-0.1250,-0.0845,1.3765,-15.32,10.31,14.04,-6.97,1.40,41.43
33.035521,-0.1216,-0.0557,1.4282,-11.29,15.87,12.39,-7.24,1.69,41.66
33.035521,-0.1074,-0.0337,1.4263,-0.92,17.82,15.14,-7.36,2.06,41.89
33.065824,-0.0601,-0.0464,1.3848,8.54,18.86,17.46,-7.29,2.46,42.20
33.065824,0.0269,-0.0684,1.3047,17.03,20.32,11.72,-7.01,2.89,42.46
33.125478,0.0942,-0.0952,1.2432,23.86,12.70,2.44,-6.59,3.25,42.57
33.125478,0.1333,-0.1260,1.1826,26.92,0.12,-5.07,-6.06,3.37,42.53
33.155783,0.1392,-0.1050,1.1646,28.44,-12.27,-10.62,-5.52,3.23,42.37
33.155783,0.1152,-0.0835,1.1475,33.14,-23.38,-15.75,-4.92,2.85,42.13
33.186549,0.0605,-0.0620,1.0977,38.94,-26.55,-17.21,-4.20,2.31,41.83
33.186549,-0.0024,-0.0747,1.0283,41.50,-19.47,-19.59,-3.39,1.82,41.48
33.246817,-0.0474,-0.1162,0.9692,39.43,-5.80,-20.39,-2.58,1.57,41.08
33.246817,-0.0342,-0.1206,0.9390,33.94,6.77,-20.75,-1.85,1.59,40.67
33.275586,-0.0049,-0.0742,0.9448,30.40,12.76,-19.96,-1.22,1.80,40.26
33.275586,0.0122,-0.0249,0.9419,32.17,11.35,-18.49,-0.61,2.05,39.89
33.305609,0.0142,-0.0225,0.8916,32.41,8.36,-17.70,0.03,2.26,39.53
33.305609,0.0200,-0.0332,0.8452,29.11,8.73,-19.59,0.65,2.43,39.17
33.365510,0.0625,-0.0322,0.8511,24.66,15.56,-30.58,1.17,2.70,38.69
33.365510,0.1191,-0.0532,0.9019,20.63,10.80,-41.38,1.60,3.04,37.96
33.395460,0.0645,-0.0747,0.9751,19.29,-15.87,-29.54,1.96,3.04,37.21
33.395460,-0.0049,-0.0918,0.9644,19.96,-42.42,-8.30,2.36,2.43,36.83
33.425251,-0.0854,-0.1172,0.9150,11.78,-40.34,-3.85,2.67,1.57,36.67
33.425251,-0.1641,-0.0605,0.9355,5.92,-21.06,-1.40,2.83,0.96,36.57
33.486641,-0.2197,0.0088,0.9653,7.75,0.31,10.44,2.96,0.76,36.64
33.486641,-0.2192,0.0220,0.9590,13.06,25.15,22.83,3.17,1.00,37.01
33.516655,-0.1582,0.0054,0.9214,15.62,46.45,29.48,3.47,1.70,37.61
33.516655,-0.0571,0.0205,0.8965,16.36,54.14,33.02,3.81,2.68,38.33
33.545508,0.0020,0.0405,0.8809,19.35,49.07,36.19,4.20,3.65,39.12
33.545508,0.0459,0.0405,0.8564,21.55,37.48,36.38,4.66,4.43,39.95
33.605538,0.0366,0.0781,0.8262,23.56,25.39,33.57,5.16,4.97,40.72
33.605538,0.0210,0.1230,0.8003,27.65,15.32,31.74,5.73,5.29,41.41
33.635505,0.0229,0.1138,0.7324,29.85,9.58,27.28,6.36,5.45,42.04
33.635505,-0.0005,0.0996,0.7222,28.20,4.94,24.41,6.99,5.53,42.55
33.695603,-0.0225,0.1289,0.7358,30.09,-5.43,29.79,7.61,5.44,43.10
33.695603,-0.0317,0.1440,0.7363,27.95,-9.46,28.08,8.24,5.17,43.66
33.725367,-0.0405,0.1733,0.7524,25.45,-6.96,23.56,8.81,4.92,44.14
33.725367,-0.0352,0.1719,0.7832,25.33,-4.94,22.71,9.34,4.73,44.57
33.757273,-0.0298,0.1597,0.7954,26.49,-3.36,25.45,9.89,4.55,45.02
33.757273,0.0044,0.1646,0.7549,23.01,0.37,22.34,10.42,4.42,45.50
33.815611,0.0332,0.2085,0.7310,18.37,5.31,14.59,10.85,4.41,45.87
33.815611,0.0537,0.2393,0.7319,16.97,3.48,10.07,11.23,4.46,46.13
33.845549,0.0542,0.2617,0.7012,16.11,-3.23,5.19,11.57,4.42,46.29
33.845549,0.0244,0.3027,0.6572,14.22,-8.91,-1.71,11.87,4.30,46.29
33.875619,-0.0337,0.3022,0.6309,11.35,-13.37,-5.92,12.12,4.09,46.15
33.875619,-0.1025,0.2715,0.6167,5.68,-12.82,-7.45,12.28,3.86,45.95
33.935482,-0.1587,0.2690,0.6411,-0.92,-5.80,-7.57,12.32,3.71,45.76
33.935482,-0.1787,0.2837,0.6743,-4.70,3.36,-5.92,12.24,3.72,45.63
33.965568,-0.1592,0.3174,0.6919,-5.92,10.50,-5.19,12.13,3.89,45.55
33.965568,-0.0991,0.3354,0.6831,-5.86,10.19,-7.02,12.01,4.14,45.49
33.995638,-0.0977,0.3140,0.6519,-6.77,1.95,-7.87,11.88,4.30,45.37
33.995638,-0.1289,0.2583,0.6357,-12.45,-5.37,-8.24,11.68,4.28,45.21
34.086039,-0.1650,0.2505,0.6670,-18.07,-5.86,-6.71,11.36,4.20,45.03
34.086039,-0.1904,0.2764,0.7148,-19.35,-0.55,-1.59,10.97,4.15,44.93
34.088085,-0.1870,0.2954,0.7314,-16.48,12.33,5.07,10.61,4.26,44.99
34.088085,-0.1680,0.2886,0.7524,-12.08,30.58,13.67,10.35,4.65,45.27
34.115481,-0.0903,0.2559,0.7637,-7.45,45.23,17.70,10.20,5.35,45.76
34.115481,0.0005,0.1982,0.7637,-5.55,40.65,14.83,10.12,6.16,46.26
34.175622,0.0234,0.1445,0.7646,-8.48,20.87,12.08,10.03,6.71,46.65
34.175622,-0.0083,0.1211,0.7866,-14.47,4.03,5.31,9.82,6.89,46.87
34.205610,-0.0571,0.1367,0.8350,-20.81,-4.39,-1.77,9.46,6.87,46.90
34.205610,-0.0913,0.1860,0.8882,-21.79,-4.64,-4.39,9.02,6.78,46.81
34.236300,-0.1006,0.1851,0.9111,-19.23,0.67,-6.47,8.60,6.76,46.70
34.236300,-0.0723,0.1353,0.9102,-18.62,7.69,-8.54,8.21,6.88,46.57
34.296371,-0.0303,0.1333,0.9219,-19.65,10.62,-11.66,7.81,7.11,46.40
34.296371,0.0005,0.1367,0.9448,-18.49,4.52,-13.98,7.40,7.31,46.16
34.325621,0.0229,0.1577,0.9487,-13.43,-7.32,-16.30,7.05,7.33,45.86
34.325621,0.0132,0.1411,0.9233,-9.64,-20.63,-18.01,6.78,7.10,45.48
34.360878,0.0195,0.0962,0.8979,-10.56,-31.25,-22.71,6.54,6.64,45.00
34.360878,0.0278,0.0659,0.8906,-14.40,-43.21,-30.88,6.23,5.97,44.36
34.416388,-0.0044,0.0386,0.8945,-18.07,-57.31,-34.24,5.83,5.05,43.56
34.416388,-0.0806,0.0166,0.8862,-20.75,-64.21,-30.27,5.39,3.89,42.76
34.445552,-0.1265,-0.0234,0.8804,-25.57,-53.96,-25.63,4.90,2.76,42.08
34.445552,-0.1094,0.0088,0.9185,-27.28,-35.71,-22.28,4.35,1.93,41.51
34.476349,-0.1060,0.0596,0.9595,-22.03,-17.88,-17.27,3.84,1.45,41.06
34.476349,-0.0557,0.0068,0.9531,-18.01,-1.95,-12.88,3.45,1.29,40.76
34.536436,0.0176,-0.0552,0.9526,-21.91,5.07,-12.21,3.05,1.37,40.51
34.536436,0.0610,-0.0356,0.9731,-26.25,-0.92,-9.09,2.57,1.44,40.30
34.565629,0.0601,-0.0005,0.9976,-26.00,-8.54,-7.63,2.03,1.35,40.14
34.565629,-0.0186,-0.0156,1.0171,-23.93,-8.12,-6.04,1.54,1.17,39.98
34.596424,-0.0366,-0.0532,1.0342,-24.17,4.39,-7.20,1.06,1.13,39.86
34.596424,0.0005,-0.0742,1.1011,-24.54,8.91,-9.09,0.57,1.31,39.70
34.656691,0.0493,-0.0366,1.1470,-22.16,-7.32,-5.98,0.10,1.35,39.55
34.656691,0.0239,0.0122,1.1138,-16.78,-31.68,1.34,-0.30,0.94,39.48
34.686603,-0.0479,0.0005,1.0327,-14.95,-38.70,4.03,-0.60,0.20,39.55
34.686603,-0.0884,-0.0552,0.9961,-17.64,-29.72,1.95,-0.92,-0.49,39.60
34.715603,-0.0942,-0.0840,1.0264,-24.72,-22.03,2.56,-1.35,-0.99,39.63
34.715603,-0.0601,-0.0415,1.0815,-31.43,-21.55,7.93,-1.92,-1.41,39.74
34.775700,-0.0005,0.0098,1.1333,-29.72,-23.01,10.93,-2.55,-1.86,39.95
34.775700,0.0400,0.0454,1.1562,-23.56,-23.68,12.39,-3.10,-2.32,40.19
34.805623,0.0493,0.0327,1.1470,-14.16,-24.84,17.27,-3.49,-2.80,40.50
34.805623,0.0674,-0.0088,1.0889,-9.22,-20.39,20.69,-3.74,-3.24,40.91
34.835578,0.0986,-0.0571,1.0366,-11.17,-13.37,20.20,-3.96,-3.56,41.34
34.835578,0.1104,-0.1040,1.0181,-18.37,-4.88,17.70,-4.29,-3.72,41.73
34.895460,0.1367,-0.0889,1.0444,-24.23,4.94,14.77,-4.75,-3.70,42.06
34.895460,0.1919,-0.0845,1.0850,-26.49,12.33,7.87,-5.28,-3.49,42.26
34.925547,0.2173,-0.0884,1.1074,-28.50,9.95,5.07,-5.84,-3.25,42.37
34.925547,0.2134,-0.0776,1.1177,-29.48,5.43,0.92,-6.43,-3.09,42.42
34.955936,0.1265,-0.0400,1.1377,-23.07,4.88,-0.49,-6.97,-3.00,42.40
34.955936,0.0728,-0.0444,1.1104,-9.77,12.39,1.59,-7.29,-2.84,42.41
35.016663,0.0601,-0.1162,1.0625,-0.73,24.05,0.18,-7.38,-2.47,42.39
35.016663,0.0679,-0.2310,1.0249,-4.33,29.05,-0.31,-7.41,-1.92,42.32
35.045519,0.1079,-0.2295,1.0332,-13.85,25.70,-1.46,-7.60,-1.36,42.25
35.045519,0.1206,-0.1475,1.0806,-15.14,14.28,-3.05,-7.90,-0.97,42.16
35.105490,0.0635,-0.0913,1.0967,-6.96,5.19,-2.44,-8.13,-0.80,42.08
35.105490,-0.0068,-0.1196,1.0674,1.53,4.64,-0.43,-8.17,-0.72,42.04
35.135498,-0.0444,-0.1382,1.0518,3.60,12.88,-1.46,-8.11,-0.55,42.01
35.135498,-0.0215,-0.1484,1.0762,4.70,19.90,-5.37,-8.02,-0.21,41.91
35.165472,0.0083,-0.1382,1.1250,3.30,14.10,-6.59,-7.94,0.13,41.73
35.165472,-0.0479,-0.0884,1.1646,2.81,-0.55,-0.24,-7.88,0.25,41.64
35.225571,-0.0889,-0.0547,1.1670,4.64,-8.18,6.29,-7.81,0.15,41.73
35.225571,-0.1152,-0.0400,1.1714,6.41,-3.78,8.73,-7.70,0.04,41.90
35.255838,-0.1006,-0.0591,1.1631,8.12,4.21,10.62,-7.55,0.07,42.10
35.255838,-0.0620,-0.0444,1.1602,8.73,12.57,6.04,-7.39,0.26,42.25
35.285484,-0.0327,-0.0347,1.1523,10.50,16.42,3.17,-7.19,0.57,42.31
35.285484,0.0034,-0.0361,1.1362,12.08,16.78,0.18,-6.97,0.91,42.30
35.345658,0.0190,-0.0723,1.0889,11.96,14.28,0.00,-6.71,1.21,42.28
35.345658,0.0059,-0.1055,1.0264,7.93,15.62,-0.85,-6.51,1.51,42.25
35.380578,0.0273,-0.1611,0.9375,0.00,20.63,-6.23,-6.43,1.87,42.15
35.380578,0.0200,-0.2002,0.9517,-12.70,19.35,-13.37,-6.58,2.27,41.91
35.405514,-0.2397,0.2119,1.6309,50.96,-53.22,42.72,-5.59,1.57,42.32
35.405514,0.0068,-0.1289,1.0630,26.18,1.53,26.12,-5.04,1.22,43.03
35.465588,-0.0083,-0.1455,0.9570,27.83,0.79,5.55,-4.45,1.32,43.32
35.465588,0.0054,-0.0425,1.0015,23.68,-0.61,1.89,-3.96,1.29,43.37
35.495514,-0.0171,-0.0332,0.9941,25.94,3.11,-0.85,-3.45,1.33,43.38
35.495514,-0.0210,-0.0142,1.0117,23.01,-2.26,-2.08,-2.96,1.33,43.35
35.525573,-0.0083,-0.0024,1.0156,18.13,-2.38,-1.77,-2.54,1.28,43.31
35.525573,-0.0132,-0.0107,1.0171,14.34,-1.10,-1.04,-2.23,1.25,43.29
35.585627,-0.0073,-0.0005,1.0146,13.37,0.12,-0.92,-1.95,1.24,43.26
35.585627,-0.0146,0.0151,0.9971,10.01,0.92,0.24,-1.71,1.25,43.26
35.615534,-0.0161,0.0225,0.9907,4.27,0.00,1.34,-1.57,1.26,43.28
35.615534,-0.0117,0.0166,1.0020,-2.32,-0.55,0.85,-1.55,1.26,43.31
35.645514,-0.0103,0.0034,1.0073,-4.82,-0.61,0.43,-1.63,1.25,43.32
35.645514,-0.0103,0.0000,1.0063,-4.46,-0.06,0.43,-1.72,1.24,43.33
35.705621,-0.0068,-0.0024,1.0010,-2.99,0.73,-0.31,-1.80,1.25,43.34
35.705621,-0.0166,-0.0044,1.0068,-1.10,0.55,-0.79,-1.84,1.27,43.32
35.735744,-0.0195,-0.0078,1.0127,1.28,-1.95,-1.34,-1.83,1.26,43.30
35.735744,-0.0103,-0.0073,1.0137,3.72,-3.30,-1.53,-1.78,1.20,43.28
35.766404,0.0093,0.0122,0.9971,-2.14,2.38,-6.35,-1.74,1.18,43.21
35.766404,-0.0239,-0.0029,1.0112,7.02,-5.00,-5.00,-1.66,1.14,43.07
35.826429,-0.0137,-0.0093,1.0132,10.86,-6.96,-2.99,-1.49,1.02,43.01
35.826429,-0.0156,-0.0132,1.0146,12.39,-6.16,-7.57,-1.26,0.88,42.91
35.855878,-0.0210,-0.0039,0.9927,12.57,-5.80,-14.59,-0.99,0.77,42.69
35.855878,-0.0005,0.0044,0.9893,-1.71,-2.93,-21.55,-0.89,0.69,42.31
35.886304,0.0142,0.0430,0.9717,-12.21,-3.97,-34.12,-1.00,0.63,41.78
35.886304,0.0122,-0.0239,1.0249,-16.66,-2.50,-42.72,-1.36,0.59,40.98
35.945658,0.0000,-0.0122,0.9941,-12.63,-3.23,-43.46,-1.60,0.52,40.13
35.945658,0.0039,-0.0137,0.9902,-23.44,0.55,-52.61,-1.97,0.49,39.17
35.976360,-0.0083,0.0166,1.0039,-26.00,2.01,-56.76,-2.46,0.51,38.06
35.976360,-0.0029,0.0259,1.0156,-27.71,0.79,-49.26,-3.00,0.52,36.99
36.005514,0.0098,0.0308,1.0103,-26.79,0.00,-34.18,-3.53,0.49,36.15
36.005514,0.0571,0.0024,0.9321,-11.72,15.50,-8.36,-4.00,0.58,35.71
36.066350,-0.0571,-0.0801,1.0229,15.26,7.81,5.25,-3.85,0.88,35.73
36.066350,-0.0122,-0.0479,1.0044,7.20,-3.11,-0.92,-3.65,0.88,35.79
36.095491,-0.0015,-0.0435,1.0088,12.39,2.69,-0.18,-3.47,0.89,35.76
36.095491,-0.0107,-0.0181,1.0044,12.57,0.98,0.92,-3.19,0.93,35.78
36.126207,-0.0059,-0.0312,1.0015,13.31,1.40,0.18,-2.96,0.95,35.79
36.126207,-0.0073,-0.0117,1.0034,16.97,2.08,0.24,-2.63,0.99,35.79
36.186398,-0.0142,0.0088,1.0054,6.16,0.79,0.00,-2.39,1.02,35.80
36.186398,-0.0078,-0.0024,1.0039,-1.04,-0.24,-0.18,-2.36,1.03,35.79
36.215579,-0.0103,-0.0005,1.0049,-6.23,-0.49,-0.06,-2.43,1.02,35.79
36.215579,-0.0083,-0.0171,1.0039,-8.18,-0.98,-0.18,-2.59,1.00,35.79
36.245672,-0.0078,-0.0205,1.0034,-5.19,-0.24,-0.06,-2.72,0.99,35.79
36.245672,-0.0088,-0.0151,1.0054,-6.47,-0.61,-0.06,-2.83,0.98,35.79
36.306445,-0.0068,-0.0249,1.0049,-5.98,-0.55,-0.06,-2.96,0.97,35.79
36.306445,-0.0078,-0.0303,1.0049,-2.69,-0.18,0.00,-3.05,0.97,35.80
